deviceId,ts_start,ts_end,missingness_score,HR,ibi,acc_x_avg,acc_y_avg,acc_z_avg,grv_x_avg,grv_y_avg,grv_z_avg,grv_w_avg,gyr_x_avg,gyr_y_avg,gyr_z_avg,steps,distance,calories,light_avg,sdnn,sdsd,rmssd,pnn20,pnn50,lf,hf,lf/hf
ab60,1617262425031,1617262724833,0.2954484488218347,84.59281638133602,728.5343736119165,0.2847651064969864,-0.5939729403884799,9.195984415271257,-0.0942031646586346,0.134907627175368,0.0016175622489959,0.0267704424364122,-1.03720886613119,0.7689692014725562,0.0024832730923688,0.0,0.0,0.0,841.3244147157191,89.36322485197668,78.03303832270034,98.4176492473146,0.746268656716418,0.3917910447761194,1818.0656245390287,1252.9924425612137,1.4509789227641012
ab60,1616736817151,1616737116986,0.2390847274141984,78.58956463941509,781.8969132869848,3.050179051861701,-1.2393532446808475,5.790543251994668,-0.2119733849734043,-0.1090163683510638,0.0591281476063829,0.2421528656914889,-0.5226945675316036,0.8386493898868932,0.4721623719228199,2.5,1.9375,0.0850830000001678,486.4850498338871,100.80497437094364,73.46868675473354,106.60293274477353,0.8037037037037037,0.5407407407407407,1918.499169226499,2784.3932927270093,0.6890187439532073
ab60,1616736517083,1616736816952,0.1007732271729379,75.62052427133156,812.1839101809936,2.153266711436169,-3.5468329428191523,8.499866018617025,-0.6289702588797821,-0.4121606174863387,0.1175675300546447,-0.020518050546448,-0.1667924541778973,1.247783018867925,0.2810377243935305,,,,779.0331125827814,89.07351780977892,48.6754962408899,74.5048962006448,0.8098159509202454,0.4846625766871165,1292.6965545525843,1034.550027496051,1.2495254170369436
ab60,1616736217077,1616736516883,0.2681775566971169,85.81316489361703,769.754943154782,2.8984091551264948,-3.4013559600532637,4.60611347802929,-0.2492467205588818,0.0085956387225548,0.2220634584165006,0.1577958848968731,0.4300133333333339,1.1771922867598146,0.1550432754491011,41.0,29.8984375,1.375,389.4086378737542,102.37176953458962,48.631218606044776,70.61518711436153,0.7191780821917808,0.4006849315068493,1561.7857473484653,812.1186187206472,1.9231005315563248
ab60,1616734416800,1616734716672,0.0434663925433861,76.94449983383184,775.1900530923125,-0.0502206343085113,-6.576163920877653,5.377019276595733,0.7158933617021279,0.3432747406914891,-0.2850617500000003,0.157745465425532,0.187519950797874,1.003178188164893,0.4201861781914888,0.0,0.0,0.0,276.3455149501661,84.04566454275978,42.10449051177577,66.97316969190196,0.7361111111111112,0.45,3460.217895483152,1886.1576613905104,1.834532693800483
ab60,1616733816674,1616734116540,0.1981474495324477,82.80824194084414,730.4492980273681,1.5610335704787264,-6.181648861702128,4.2145736409574415,-0.2546079833776593,-0.1061753643617017,0.112883386968085,0.0556926928191489,-2.287752652925532,1.4441688909574482,0.8554521150265961,0.0,0.0,0.0,356.7707641196013,84.40483267500223,51.606591561581325,74.11209585654493,0.7402597402597403,0.4188311688311688,817.2837918604532,1082.8101363111773,0.7547803298597703
ab60,1616733516611,1616733816474,0.2356153943858757,83.7274842140246,746.4226024121996,6.387731521623423,-4.627328924817021,4.0017785395874865,-0.5335338989361699,0.1693645013297876,0.2995295113031914,0.2774581156914892,-0.1610837912234041,1.3260904341755326,0.4353590618351061,0.0,0.0,0.0,380.265780730897,98.6340199501336,51.01674768932362,73.0543421167054,0.697986577181208,0.3791946308724832,1756.2223166274678,1155.6658562111277,1.5196627184135003
ab60,1616733216540,1616733516412,0.1191654230283548,81.05948820206048,742.7908880101269,5.329059428856384,-5.844994277260636,3.2249871542553135,-0.2857252280585108,0.4052770492021283,0.1407562932180851,0.4549814886968078,-0.1596409753989354,1.2866223351063806,0.4439228843085104,0.0,0.0,0.0,286.0066445182724,77.37673825119123,49.36971250221722,71.23167920030356,0.7232142857142857,0.3988095238095238,1314.152325383588,859.7503888331383,1.5285277476491386
ab60,1616732916461,1616733216340,0.3188567693888695,99.83216002747253,671.4154777099743,3.921432191489361,-4.00866201130319,5.60854080319147,-0.1909434197952217,0.1683205754266211,0.1367857604095563,0.2445282600682597,-1.1861792836927247,1.2663678969002692,0.2097169777628031,0.0,0.0,0.0,467.5880398671096,134.69998029600742,77.41802001547387,110.48994864552506,0.8484848484848485,0.5286195286195287,2225.621759019707,2923.184654955847,0.7613688568207553
ab60,1616731716199,1616732016090,0.0937901531499842,87.39697573944832,678.9688637042459,8.635140027260656,-4.687677945478718,-0.4395586476063819,0.1168912340425529,0.5969143603723406,-0.0859998437499997,0.6535297187500005,-0.5808045206117012,1.458364361702127,0.4093417559840421,,,,204.79734219269105,72.57285771698032,50.023364713139486,72.16515708505219,0.7211796246648794,0.3753351206434316,1310.0297996132367,1097.9556514065682,1.1931536560105909
ab60,1616726615304,1616726915171,0.2967490718866014,78.77700232635426,782.3120657351617,0.3944816363031913,-5.749701402925535,6.388500722074464,-0.0353082034574468,0.0661925851063828,-0.0263458085106383,0.0689318457446808,-0.9031582626329784,1.0782513291223383,0.2049268643617021,,,,275.84,101.8378007302702,76.52196764791398,116.11855441036978,0.8373983739837398,0.5975609756097561,1911.9368434533544,4692.630823170817,0.4074338927351323
ab60,1616726015196,1616726315022,0.2415207877461708,77.7872340425532,782.4457510131714,-3.115305408516304,-3.701940198935461,7.055297227544919,0.4899567267287229,0.5266291329787236,0.005108204787234,0.2222853749999996,0.4777592998670222,1.6101861748670223,-0.236203452792553,0.0,0.0,0.0,480.2533333333333,94.13918384804342,68.14929974593947,100.03213052339804,0.7970479704797048,0.5055350553505535,2912.773775590173,1750.05265477982,1.664392078509569
ab60,1616737117187,1616737417027,0.0600813206756944,76.17680292455965,788.4760778355877,7.428159853058507,-1.7156442958776572,4.102379862367019,-0.6982674807180855,0.0118275924202126,0.2056700804521277,0.4166666702127666,-0.4893949514627658,1.4385372413563815,0.1601063836436166,,,,305.78073089701,71.95112928720258,43.62836932970331,66.00403427538446,0.7456647398843931,0.4104046242774566,3055.561546040972,1405.8433699548414,2.1734722454458937
ab60,1616737417226,1616737717039,0.1705137534565565,77.63841807909604,794.5080769115292,5.060803904127825,-2.103891691078563,5.61933366644474,-0.2738013789893615,-0.0695003889627657,0.1736432958776597,0.1553033537234043,-0.6493745861610118,1.4075914770459068,0.0513240212907519,0.0,0.0,0.0,456.6511627906977,93.85931245126264,61.80322731145466,87.45862182631588,0.762214983713355,0.4625407166123778,1675.4254101093602,1656.8950515558622,1.011183785319473
ab60,1616737717239,1616738017058,0.2940098769222896,78.18806268756252,774.4016924429355,1.3331808437499997,-6.870726089095753,4.997023432180854,-0.5071309049202123,0.0966417187499999,0.2320311303191488,0.0687228550531914,-0.0462633031914864,0.9450465478723394,0.237460095744682,0.0,0.0,0.0,341.4750830564784,97.5281460748669,48.67163588947975,70.3739137634457,0.7047244094488189,0.3700787401574803,1750.2852202268712,1540.4219091063476,1.136237552763887
ab60,1616738017257,1616738317078,0.1610699924238008,80.10203401133711,761.5904122269615,2.5655752087765937,-3.2341829900265946,6.904451512632986,-0.1259662114361701,0.047095020611702,0.0167412473404254,0.0852597041223403,-0.374760650265957,1.1562566515957435,0.3994281861702125,0.0,0.0,0.0,545.8205980066446,82.71465444044544,50.64639851513311,72.31130240218452,0.7025316455696202,0.4082278481012658,2080.383397877746,1167.6501737054614,1.7816837994172394
ab60,1616753358233,1616753658050,0.0228171909697972,84.73337765957447,706.39581213616,3.3035477785904193,-5.63243078789894,5.516168918882984,-0.3254666017287237,0.0263281263297872,0.1607268517287233,0.2344427878989364,-0.4182313809840411,1.488989370345742,0.4595146216755311,,,,400.6378737541529,52.4735766566474,37.16613489135069,51.05460639522303,0.6151960784313726,0.2279411764705882,803.1702922976075,1274.8898677262066,0.629991901755466
ab60,1616751519900,1616751819783,0.2032997265397137,80.33133931538717,742.8357591801399,4.564282898868929,-6.943218270791774,2.2431557844311385,-0.3140826276595743,0.1416081236702128,0.1047566988031914,0.1593653371010642,-0.040006649367931,1.5461477039254827,0.5222288755821685,,,,213.5548172757475,71.82444377553205,56.07322074060863,75.28162850880003,0.7006802721088435,0.3605442176870748,1536.549949596403,1228.1579789315815,1.2511012230959917
ab60,1616747919275,1616748219173,0.181389782116541,69.14157527417747,875.8636777610432,2.418200223404257,-3.427713641622347,7.24737293218084,-0.2593042945478728,-0.0193597386968085,0.1270981409574468,0.0608727240691489,0.1240358969414896,1.5269680871010656,0.0403058470744674,0.0,0.0,0.0,611.4266666666666,109.37866391835556,79.48039183505153,115.2314106580098,0.8274509803921568,0.5882352941176471,3612.2788988908846,3366.40215447968,1.073038434841784
ab60,1616747619264,1616747919076,0.1074450606896414,66.77460106382979,908.457570832438,2.223323866267465,-4.9798539354623985,7.557624369261462,-0.6178125688622754,0.4678948336660007,0.1371197824351298,0.1406443253493013,-0.2477711250831671,1.2944178310046588,0.2880106467065867,0.0,0.0,0.0,614.6933333333334,101.31350105530646,47.824941723494526,78.79824256448191,0.7839721254355401,0.5400696864111498,1556.2223962259957,1161.4082104307113,1.339944372916794
ab60,1616747019097,1616747318972,0.2260609231484712,68.73926073926074,881.9802279481526,2.2364952500000035,-6.219669904255324,5.737188416223406,-0.4860778264627666,0.5137922765957453,0.1576827646276596,0.2949771642287233,-0.7068417613031917,1.2907646309840377,0.3775531988031906,,,,437.03654485049833,112.36274448949128,71.87051289353856,109.72994538056786,0.869198312236287,0.5949367088607594,1939.2225584046248,2985.756171721792,0.6494912668258294
ab60,1616746418952,1616746718821,0.2942783898767318,73.11665004985045,844.5981821073742,2.078107602393618,-7.306289811170219,5.115130871010633,-0.5267074155585107,-0.300322847074469,0.1832134448138297,-0.1659209621010638,-0.5089428051861703,1.3755186143617029,0.5535305731382948,,,,382.4717607973422,79.19138790416199,59.26094329192886,81.68230445754267,0.7231404958677686,0.384297520661157,2345.297622391363,2882.854209977216,0.8135332040984127
ab60,1616746118894,1616746418753,0.2995508117289006,77.09338650714523,788.3126542306169,0.5956298696808506,-6.728709501329785,6.515894654920213,-0.5975864155585116,-0.0538289175531914,0.2124044507978724,0.0155829361702126,-0.365265967420212,1.1517885631648923,0.4506249986702121,,,,427.1627906976744,75.58255466155504,58.29770244736397,79.2021560828382,0.7020408163265306,0.3836734693877551,1196.4796874556623,1983.7372462683409,0.603144236821883
ab60,1616684509912,1616684809787,0.0299274848450188,73.39657488247146,822.3749127403777,5.936085232931721,7.118434297858095,0.9287499143239616,-0.3687375876840698,-0.6364860234270409,-0.2826966546184739,0.5968520368139218,-0.4360709444444439,1.0165930374832646,0.4420682724230228,,,,41.2751677852349,58.89491284624509,43.29486876629443,65.30499376468762,0.7428571428571429,0.4085714285714286,1785.8668928313607,680.5123826593211,2.624297424027042
ab60,1616745218659,1616745518552,0.3091329858959875,72.95181123296776,874.9897885361179,3.0996041974734077,-0.5684131130319134,6.707546412898922,0.0327336329787235,0.0493690937499999,0.1005316263297872,0.2103353683510637,0.2627212168995357,2.0040585582169195,-0.5770924677312068,0.0,0.0,0.0,429.8737541528239,94.69002735780911,57.68930781628372,82.39179882936172,0.7922077922077922,0.4805194805194805,725.6000511276301,954.4397613573888,0.7602366126236122
ab60,1616744918560,1616745218458,0.2365980650169452,70.21203057494183,857.8681535916595,5.836535084441486,-6.213382384308501,3.290859769281915,-0.5586608750000003,0.3719824527925532,0.2270223371010644,0.4041684109042553,0.2442087699468089,1.0837433464095745,0.3585638344414874,,,,282.6843853820598,94.03565804363106,53.78236584741411,82.76393007182931,0.772,0.48,1562.8671151987928,1784.6977789630355,0.8757040736089596
ab60,1616744618462,1616744918361,0.1031265673097717,72.25099734042553,832.6502645165009,4.7883708023952085,-6.2471743007318565,3.668095182302069,-0.3884632353723401,-0.3048710950797875,0.2130286249999995,-0.167288347074468,-0.2318284627659569,1.2143882965425483,0.3290558563829782,0.0,0.0,0.0,275.72093023255815,91.9784815180664,46.28058179955945,72.4163576730135,0.7662337662337663,0.4707792207792208,1496.2582702589948,2135.1477445086166,0.7007750513317963
ab60,1616741617715,1616741917580,0.2592800743149094,71.55201063476238,836.4766495966647,0.9601344109042544,-6.927369490691487,2.7504557573138353,-0.0799025059840424,-0.0801595106382973,-0.0764737905585106,0.2249780365691487,-0.1673204800531912,1.3201329820478631,0.1928723397606373,0.0,0.0,0.0,334.89700996677743,88.23153231009533,49.19530016876707,74.37714748104449,0.7584745762711864,0.4703389830508475,1964.1815992024813,1408.8088573915672,1.3942144023989147
ab60,1616739817417,1616740117242,0.0115504363509727,63.93851777999336,941.6239350730876,-0.3298404348404243,-8.234062174867013,5.963310188164884,0.3996924521276602,0.772313003324468,-0.1698147719414888,0.3503001648936164,-0.3179321808510613,1.133590425531905,0.4050132978723427,,,,336.66445182724254,84.98321443658014,46.33332129698079,78.38392282952692,0.7859424920127795,0.5623003194888179,4275.730490492392,2880.2977189115645,1.4844751854708087
ab60,1616739517403,1616739817217,0.0230916790329003,64.48916305435145,935.4800657544024,-0.18854136768617,-8.026066403590416,6.218764651595747,0.6844357267287235,0.3579416017287233,-0.2907502280585102,0.1511201609042554,-0.3161170285904234,1.164401595744663,0.368942817819152,,,,386.2591362126246,89.10880380212383,52.6091854250245,81.58203262770925,0.7322580645161291,0.532258064516129,3638.549503079621,2537.912576303144,1.433678030147013
ab60,1616739217402,1616739517205,0.0525910425204173,68.60817547357927,876.1184201510695,-0.2794018264627661,-7.4811121828457345,6.816279803856382,0.4098130246010625,0.7291741994680851,-0.1293551117021275,0.2664475359042557,-0.3578656901595727,1.072759307180842,0.4428523936170198,0.0,0.0,0.0,331.0830564784053,96.45754584360596,48.11675057214597,75.01570630514915,0.7619047619047619,0.492063492063492,3929.3496101061473,2192.9159283536173,1.7918377806011916
ab60,1616738917357,1616739217200,0.0216053044383806,75.63409770687936,799.0692790643425,0.0258183118351064,-6.060771518617013,7.724106231383001,0.5330629926861703,0.1865816382978723,-0.1890260019946808,0.071156477393617,-0.3392952220744663,1.1539295206116975,0.3395279288563823,0.0,0.0,0.0,403.0033222591362,83.29285280823733,40.438331522175865,67.2106471370182,0.7780821917808219,0.4630136986301369,3206.1677268106178,1956.2249366756653,1.638956577385757
ab60,1616738617319,1616738917158,0.2488472125514899,76.68213572854292,779.2417741752267,2.1317154035904267,-2.4532111722074466,7.717920531914912,-0.3040530904255321,-0.073738856382979,0.0317195538563829,0.1132341635638296,-0.5190891123670204,1.1857646429521267,0.2872141003989363,0.0,0.0,0.0,665.4485049833887,104.40340066201776,58.0007538203974,85.40435761523278,0.7777777777777778,0.4636015325670498,6060.234565657536,3397.918332504236,1.7835138966365909
ab60,1616738317278,1616738617118,0.287952027669474,79.20814634918959,809.7911224985774,5.041424119760471,-2.3215967405189635,4.818043089155023,-0.4928983627049175,-0.3368089890710385,0.2255975334699452,0.1216157862021859,-0.5774999845013468,0.2582075431266848,0.1042924521563336,0.0,0.0,0.0,408.8239202657807,105.19220264583473,69.7812942154166,95.78829136130815,0.810077519379845,0.4844961240310077,1688.653836883535,3583.00180413867,0.471295837733879
ab60,1616745518752,1616745818633,0.1266324034095489,68.47059615384616,875.186247427293,4.78130984374999,-2.0432095950797855,5.970041563164908,-0.4155687044368599,0.0701878819112629,0.0748613576791808,0.2716883187713315,-0.5508018672506725,1.6088679305929885,0.6741981057951484,,,,447.9867109634552,106.98487181725642,57.24674167968546,86.31462239089858,0.7894736842105263,0.5228070175438596,733.0653668904714,1411.2403542198706,0.5194475658936977
ab60,1616683057305,1616683357153,0.0806589665653494,82.88545515619751,734.7077412796352,4.659843338245142,-3.6324281694574694,6.56126870596115,-0.5417253281982579,-0.485789501674481,0.2323403938379101,0.0806233509711989,-0.1512994038847956,1.250576010046886,0.4791225800401861,0.0,0.0,0.0,162.5503355704698,65.05024952385978,50.84648447804096,75.06990366064386,0.7859078590785907,0.4254742547425474,864.599732599193,1029.877793729533,0.8395168221543908
ab60,1616682757286,1616683057105,0.0771912067056777,84.95801142089351,716.1536112755335,5.837033525117215,-2.037420352980571,5.762859265237778,-0.4569304614869395,0.3233388479571327,0.0220207052913596,0.3566856302746148,-0.4633221654387138,1.2178499665103808,0.2379437454789013,0.0,0.0,0.0,150.83612040133778,58.770366952483485,38.84256255494145,59.60842008974843,0.7150395778364116,0.3693931398416886,1076.167799140511,1018.483816497109,1.0566371126463214
ab60,1616666116266,1616666416145,0.2702765625151571,68.51910933865071,890.1062826246828,6.797431541223401,-0.1295942639627675,3.235217108377667,-0.1084935585106382,-0.4490581635638289,0.0463110910904255,0.2911170644946809,-0.5194148989361688,1.3892021289893612,0.2127460046542539,0.0,0.0,0.0,281.2133333333333,116.14519451982684,60.648051435397576,92.01247008652749,0.8043478260869565,0.5695652173913044,1911.257942488738,2820.323445925802,0.6776733162466573
ab60,1616664915924,1616665215821,0.0663563829787234,71.97607178464607,828.6791044776118,6.87527348835662,2.7614160159680656,3.0988724451097784,-0.1012628371010639,-0.359723484042553,-0.0225856602393617,0.4325294621010644,-0.5285837466755305,0.9962898949468076,0.2503523876329778,0.0,0.0,0.0,339.53333333333336,108.82416700609843,57.88883405610977,83.98654323428478,0.7777777777777778,0.5030864197530864,1460.40341323267,1322.2369862580942,1.1044944502464602
ab60,1616664615912,1616664915725,0.1114989044729566,68.42985372340425,874.5566986386139,4.741012095079789,1.2742114640957447,5.531760452792548,-0.1553271881648936,-0.0111365132978722,0.0063244102393616,0.3242533623670214,-0.3802526602393614,1.0162566416223413,0.0686502632978718,0.0,0.0,0.0,486.72,103.57199353241548,76.97008908996266,113.04215174788187,0.8262411347517731,0.6170212765957447,1531.6336165649157,2278.9163633914404,0.6720885597949577
ab60,1616664015748,1616664315625,0.3060505535826195,79.54469923562645,768.3386919242276,-0.4436133526666654,-1.4960485386666669,7.270522997333326,-0.382180351063829,-0.1755043803191475,0.0395458570478725,0.1686643889627659,2.053178201462765,1.965212778590424,0.6812898776595732,0.0,0.0,0.0,703.7873754152824,87.29104593683138,58.93143189919274,81.81549245368447,0.7568627450980392,0.4117647058823529,1050.5664601549756,657.6580442851139,1.5974357331810034
ab60,1616663115596,1616663415456,0.0431355546949976,79.21707235745248,759.5150879217233,1.5921895871010654,1.0639230711436156,9.241146256648957,-0.6945905438829781,-0.4757059973404257,-0.0056093982712765,0.0437367007978723,-0.505359049867021,1.5108643743351078,0.5901595797872332,0.0,0.0,0.0,939.8803986710964,70.18316801704654,40.4038512270072,60.84044038849639,0.6900269541778976,0.3584905660377358,2002.1508851280944,846.8877385590871,2.364127845958187
ab60,1616662815536,1616663115397,0.1209893373581966,81.91026919242273,737.3781389350983,1.5943872361942784,0.2457809314703923,8.751533049900196,-0.4715659793882976,-0.1883689281914893,0.0070931695478723,0.0676208889627659,0.1264561702127662,1.5625731389627655,0.2047872293882961,0.0,0.0,0.0,842.9235880398671,85.22692992660427,76.08314350784553,102.26229255062675,0.7573099415204678,0.4736842105263157,2046.5548350104268,1404.7104439652055,1.4569229151834506
ab60,1616662515471,1616662815337,0.0575130293721741,77.03024260551679,778.9796913128021,3.290883644946805,0.1467147107712766,7.251192841755305,0.0442464740691488,-0.1683481675531916,-0.0032268058510638,0.2203711622340425,-0.7618550638297861,1.1205119780585089,0.2470944055851064,0.0,0.0,0.0,613.6478405315614,65.41466742785563,42.11535860058637,64.22963668186858,0.6997167138810199,0.3909348441926346,1255.447816837608,909.2889872235776,1.3806917651900654
ab60,1616662215409,1616662515272,0.2337909396430918,80.39581256231305,766.8530098087929,2.04772530646236,-1.334995750166556,6.5209135383078065,-0.33328904055851,0.2103308058510635,0.1367152639627659,0.1785284960106381,-0.33580446875,1.8457379940159595,1.1020810977393616,5.083333333333333,3.8502604166666665,0.1808675000002798,582.764119601329,90.5403560698435,64.30470984929184,91.08947191610363,0.7770034843205574,0.4982578397212543,3074.993139664909,3109.564632895963,0.9888822078610866
ab60,1616661915341,1616662215199,0.0996256518090353,79.30034895314058,758.4710128042838,3.6713583417553215,0.5005708523936164,7.029907660239363,-0.3418888065159572,-0.3903879567819147,0.0901368025265957,0.1729702519946808,-0.4481582386968082,1.1449933503989351,0.2409507878989356,0.0,0.0,0.0,614.4717607973422,71.37297219544475,41.5266611563994,62.52821840449414,0.7076023391812866,0.3771929824561403,1417.8852465698242,1397.2292069027576,1.0147835727774792
ab60,1616661315180,1616661615072,0.1440481400437637,78.97640412097043,763.6765856732474,0.4257331017287236,-0.3898105126329796,8.760803011968084,0.1074407114361702,-0.3179787573138303,0.0192937619680851,-0.0098044002659575,0.1763031821808517,1.3977659740691497,0.0316489182180851,0.0,0.0,0.0,778.0199335548173,81.86286607874639,56.42106397440499,79.02449644641025,0.7151898734177216,0.439873417721519,1109.2727268563615,1823.3756879099776,0.608362135248086
ab60,1616661015084,1616661314981,0.0652080516235044,77.66434031239615,773.2258747697972,0.2600301409574465,2.8010439135638276,8.581206054521282,0.3852476602393612,-0.0947799374999999,0.0728086994680849,0.0179387805851063,-0.1063962373670209,1.5886369740691513,0.5327725944148927,0.0,0.0,0.0,787.7209302325581,82.71443239362219,51.1645244375034,72.79156577254514,0.7228571428571429,0.4085714285714286,1218.6365570915168,948.3008044666664,1.2850738408651776
ab60,1616754258418,1616754558297,0.1748298065126572,82.89199069458292,728.0402681496078,4.105055869015956,-3.37865601529255,6.3628781030585095,-0.6479773444148924,0.2197029142287233,0.1646803311170212,0.2224292632978724,-0.5342619647606394,1.5311569102393594,0.4686835079787227,,,,387.1760797342193,87.83080145898376,73.32077727345236,91.90808922080086,0.6822429906542056,0.3489096573208722,723.471534562268,728.0929460539408,0.9936527176691938
ab60,1616672121074,1616672420893,0.0036166487524252,98.3557180851064,602.8948875935474,2.1440709534264752,-1.6671860239520973,9.462843013972082,-0.7245500412508306,-0.5479549201596803,0.0369357658017299,0.008847989354624,-0.1703659288090485,1.3052228862275432,0.4067731210911502,,,,55.76,81.03900396729168,53.87241123442046,66.567054879783,0.5652173913043478,0.2215320910973084,893.1787679313469,502.7176021890276,1.7767008038749783
ab60,1616682157079,1616682456985,0.1731929819672645,96.2739771965124,630.3389284489473,1.0399117540106932,-4.715196147058829,7.065630949197868,-0.4803891089572187,0.0663952319518717,0.1410366470588234,0.1174853810160427,-1.681356981283423,0.9719050882352948,0.7364973342245983,0.0,0.0,0.0,146.11371237458195,81.80284256706615,53.81632654533767,68.28423179817406,0.6453333333333333,0.2586666666666666,847.6620306525184,870.2514289577913,0.9740426759972968
ab60,1616681189215,1616681489029,0.0878721595244496,91.4345514950166,659.2025555839512,-0.1038962033222594,-1.928982300332225,9.693481883720931,0.3780150644518268,0.7951974750830547,-0.0072060232558139,0.018050865116279,-0.1403720956810633,1.1025116272425244,0.4082790671096347,,,,152.22591362126246,79.40426489850525,60.03840286831256,76.23347196178219,0.6435643564356436,0.2871287128712871,2115.160779267036,776.7461921464313,2.7231041499181083
ab60,1616680889202,1616681189015,0.0823393506253465,86.30641409106015,695.6904044827542,0.217349126329787,-2.2856197300531873,9.263192351063845,-0.1541879042553194,0.3499001216755316,-0.024436824468085,0.0500680651595744,-0.4035239428191481,1.183996012632977,0.4652393577127648,,,,130.6843853820598,71.98736363574018,46.42734864484518,61.32120431385716,0.6308900523560209,0.2539267015706806,1105.1019599397302,383.0020133929334,2.8853685393188067
ab60,1616680589147,1616680889003,0.0514142798516419,85.81196013289036,698.504898613816,0.2932528264627657,-3.938761056515958,8.029817950797861,-0.0555695412234039,0.5931310006648937,0.0115930119680851,0.1784703304521273,-0.089315166888298,1.1077593111702098,0.4328922998670196,,,,118.35215946843854,54.61074780434381,36.161190726528986,52.63733681764715,0.6265664160401002,0.2656641604010025,1233.131932223919,504.5463812275336,2.444040782184933
ab60,1616679622475,1616679851224,0.3060658332800932,92.51598073555166,655.4403805002189,0.8424908899563317,-1.7343867982532757,9.200534687336235,-0.0489722227074236,0.0923300655021833,0.0026715379912663,0.051944080349345,-0.3726200934497812,1.320340616593885,0.3680960794759849,,,,157.90393013100436,60.585245402409456,38.80716854407138,50.65517273425243,0.5466237942122186,0.1768488745980707,1726.9445295842331,831.3450677139656,2.077289679883456
ab60,1616679022324,1616679322209,0.0250412449279886,89.43968095712862,670.7229694059583,6.138315539893621,3.579985607712772,6.2701005452127685,-0.5778713570478725,-0.6222740166223402,0.0571579614361701,0.3177740844414897,-0.1777925591755322,1.286622337101062,0.4442486702127644,,,,71.54817275747509,45.99111713029823,32.336805726761234,44.00733062034273,0.5641025641025641,0.1585081585081585,775.7698684726219,208.94351671529955,3.712820960746362
ab60,1616678722307,1616679022124,0.0130843161463271,97.4753989361702,613.9350624030363,7.229285110372346,4.917662567154252,3.5516392553191563,-0.537802694148937,-0.5630668550531912,-0.1070786037234039,0.5141103976063833,-0.3403657034574462,1.2155984015957444,0.3981715472074458,,,,56.31893687707641,43.45186801095176,49.78639372082954,55.496809451498265,0.3228511530398323,0.0838574423480083,352.28304884257,89.04482675362395,3.956243857010287
ab60,1616671821031,1616672120875,0.0932030131717827,91.97207446808513,647.8146708137275,1.160118054521276,-2.434159255319146,9.409918212101084,-0.7256065352393616,0.4380356436170213,0.0280649308510638,0.0293618098404255,-0.1760704740691493,1.2725664993351062,0.2582646249999994,,,,45.21333333333333,68.21761859128756,44.94180028604913,61.81321463903642,0.6334164588528678,0.2768079800498753,651.612993494772,510.3661704030296,1.2767558495897204
ab60,1616676021745,1616676321626,0.19336715791482,114.79820206752936,530.083940451561,0.6150222747837648,-3.2239567704590772,9.263926689953436,-0.3374770890957448,-0.1084901968085102,0.0203205837765956,0.0143639454787233,-0.7079663144781142,1.30581818047138,0.3086599279461273,,,,38.39464882943144,87.32518635188538,75.57612113362205,95.22787628433824,0.6963470319634704,0.365296803652968,1071.012594097507,391.2971172521673,2.7370827610961013
ab60,1616675721669,1616676021545,0.135384393688306,111.032,550.2359423799581,0.6517758982035922,-2.9336737877578147,9.441414251497015,-0.8098499095744671,-0.0328383058510637,0.0387667506648935,0.0105087253989361,-0.5756382932180858,1.2172273916223402,0.5833178238031921,0.0,0.0,0.0,38.44518272425249,70.07341276263291,56.12675042061859,74.7390204755502,0.6746724890829694,0.3253275109170305,1174.1556251401748,1161.3850239022104,1.0109960099150028
ab60,1616675421607,1616675721468,0.0754755360925821,109.02902403899412,552.6973325219834,2.444634212765953,-2.782552027925526,9.18120157779257,-0.2876105319148935,0.3927516323138287,-0.0014360418882978,0.0358829175531915,-0.2681781828457445,1.2740558503989343,0.4828789873670211,,,,55.24252491694352,51.86554343668221,36.87408770958243,52.97055019453525,0.5967413441955194,0.2749490835030549,640.645697856723,219.0599693053676,2.9245219922571466
ab60,1616675121526,1616675421407,0.1484498701719281,115.3191063687896,528.3053049656007,2.5111718710106397,-2.7112223623670206,9.150082179521302,-0.8709830890957447,0.3004771389627667,0.0334278956117021,0.0631617898936171,-0.4449933597074465,1.1609574454787246,0.3318018610372334,,,,61.32890365448505,60.5622973222466,48.36145867152912,69.62547059194112,0.7243589743589743,0.3696581196581197,849.887442809234,172.23074316049602,4.934586167448936
ab60,1616674821433,1616675121326,0.1147853685797736,126.07111997341308,483.42006410451467,2.4711302686170167,-3.1156444082446755,9.09133706050533,-0.3364549009308516,0.4018534408244687,0.0009561409574467,0.0469840412234043,-0.5245345757978722,1.174454784574467,0.4491356382978706,,,,69.30232558139535,51.1588805450252,40.958130485499005,59.17668748228528,0.6797020484171322,0.3333333333333333,274.0645645591042,110.65073125746238,2.476843681415988
ab60,1616674521436,1616674821233,0.2148115402023008,126.33909574468083,472.3205521975072,2.8144160172872383,-1.99791460505319,9.1808451888298,-0.6371393184840426,0.5406862007978729,-0.0055883936170212,0.0609396489361702,-0.2657019261477047,1.201922821689953,0.3735661996007977,,,,69.91362126245848,60.76023085919777,50.36127015878039,68.77213886147764,0.6746203904555315,0.3427331887201735,127.38344484219832,249.7586118112121,0.5100262366067485
ab60,1616674221346,1616674521235,0.2169749463342329,115.44969037298146,523.1892437168635,1.7025314793882982,-1.8785455478723392,9.491959894281928,-0.6332849361702129,-0.5098117074468093,0.0278923371010638,0.0112816396276595,-0.2939999932659927,1.571629628282827,0.4062828323232326,0.0,0.0,0.0,57.35117056856188,85.51584172068482,67.0951065921407,90.5047421375766,0.720763723150358,0.4152744630071599,744.6299450843231,1236.1136862305389,0.6023960040075532
ab60,1616673321224,1616673621118,0.1179458124590082,107.92987703555998,556.6134512952372,0.427201567819149,0.2636305113031914,8.97795482646277,-0.0858553038563827,-0.3189269242021276,0.0371678789893617,0.0462582885638297,-0.0134508025265958,1.4518018623670208,0.3404122347074468,0.0,0.0,0.0,44.66445182724252,66.79614545588946,56.323857811089205,70.95932801639216,0.6195652173913043,0.2608695652173913,762.8174293955262,791.0676429487664,0.964288498202334
ab60,1616673021217,1616673321026,0.1295519918783254,106.382,569.7778753246754,2.9613974218230124,-2.190120461077846,9.133122192947422,-0.7293190425815019,0.0857174783765804,0.0282310864936793,0.0524558077178975,-0.258296736526946,1.1882302062541563,0.3622488356620086,,,,62.033222591362126,73.79702022796002,47.652078076725935,62.95066129982472,0.6470588235294118,0.2714932126696832,722.8201664074616,550.8358691538215,1.3122242157502153
ab60,1616672721119,1616673021019,0.0993293591654247,105.25490196078432,574.6399272935247,2.8986421083776555,-2.113791506648929,9.177690337101067,-0.7971894115691498,-0.4400012320478719,0.0595764242021277,0.0270833949468085,-0.290565164228723,1.2569747333776609,0.456628989361702,,,,61.52823920265781,75.87318852177772,63.80004271968789,78.7941967196271,0.5708061002178649,0.2941176470588235,1207.6744012302815,998.3579773149258,1.2096606915270114
ab60,1616672421092,1616672720919,0.1720120696333118,108.21413780792574,601.3355356468248,2.746734457446802,-1.8903744142287235,9.262735763297876,-0.6779285312500003,0.4337958238031916,0.0022219727393616,0.050543784574468,-0.1401414107744107,1.1126464639730624,0.2858922538720535,,,,59.97306397306397,94.5604807017493,62.1114055465869,81.39068307831992,0.6473317865429234,0.3410672853828306,1201.695883596185,813.2245321243882,1.477692612711759
ab60,1616660114977,1616660414824,0.0186158668917288,81.31372549019608,740.7627324057976,1.8074742129075176,0.0848679940119769,9.369516485029925,-0.7153479421542565,-0.124600121675532,-0.0064251216755319,0.0362718976063828,-0.4334508045212765,1.3407513331116938,0.3508377586436176,,,,595.7076411960132,57.79573974707664,32.77020666970817,54.86204135499733,0.72264631043257,0.366412213740458,1467.0274210645084,819.2148286435328,1.790772541915083
ab60,1616755458698,1616755758588,0.3152200531838139,80.60983715520106,744.2320855614975,4.3352234295212755,-1.985648214095748,4.6412533523936235,-0.6511792513297874,-0.1396136309840425,0.1541102466755323,0.2796876728723401,-0.080991344644045,1.5943978755821695,-0.0611975868263478,0.0,0.0,0.0,403.5880398671096,72.47457187642779,65.76114407721793,88.32123167706675,0.753968253968254,0.3849206349206349,1193.7252831698838,1732.8320387272154,0.6888868952623294
ab60,1616757559375,1616757859200,0.1789509057927529,96.94913563829788,624.3125983942068,0.0749767059214904,-5.40850830538922,8.434979915502318,-0.3521676726546914,-0.025800371257485,0.0535633153692614,-0.0045106919494344,-0.5253492967398535,1.2010379234863595,0.2798602787757814,,,,164.7176079734219,72.40983834645995,68.5026557462258,82.45615943475647,0.5483870967741935,0.2526881720430107,1252.5751068353586,1743.418306583287,0.7184593061260942
ab60,1616827123032,1616827410443,0.1527794683526928,62.08536978881558,962.5725420249804,3.3595430307048137,-3.754165020935106,8.545357288206581,-0.9088541095603636,-0.3371132309839498,0.133228802512212,0.0491600376831822,-0.3199860335195508,1.1141340782122868,0.4115921787709512,0.0,0.0,0.0,0.0,85.68708930114398,57.54788874656417,81.53034386817795,0.7540983606557377,0.4549180327868852,5095.836875861122,3396.6171319282225,1.5002682604289497
ab60,1616826822882,1616827122831,-0.989971251471222,63.11648970161837,412.3739173546255,3.3633334542677766,-3.746295106558916,8.578690846900455,-0.4124042140300633,0.3109177820329281,0.0157595855404437,0.0731401907659269,-0.3128141728269165,0.9008284476166272,0.4459801172572028,,,,0.0,95.2027683437635,89.02541781907948,128.70669858060154,0.7889447236180904,0.5309882747068677,989.3280580129132,3378.024533526645,0.2928717799986071
ab60,1616825258004,1616825557996,0.0519703648496913,68.14132976946208,900.2754485102922,3.396393260200667,-3.615217262207356,8.49066610301006,-0.537329261363636,-0.2878346490641705,0.0915923950534757,0.0245505147058823,-0.138362302139037,1.089725933823525,0.4181751470588246,24.0,18.3125,0.7998049999996508,0.0,98.55900839905328,52.02300600374669,74.27506367577962,0.7563291139240507,0.4113924050632911,4156.786224163464,1768.8798388355494,2.349953983816034
ab60,1616822921298,1616823221178,0.2704337449360573,68.53387153387153,918.4315147568162,4.964214872824624,5.210030127175365,4.102709024096381,-0.3372272530120486,-0.6576432831325301,0.0215232757697456,0.4389107623828642,-0.1281927510040157,1.1689156626506017,0.2814993306559572,0.0,0.0,0.0,0.0,78.38465202252947,54.29098491798294,75.7474919948322,0.7523364485981309,0.397196261682243,1124.3429850794437,848.8892184011715,1.324487295523757
ab60,1616822621243,1616822921097,0.1655576257652382,68.54877192982457,920.810786580486,2.5524722550200827,6.069711720883542,4.433179616465864,-0.3100153286479252,-0.4023999725568936,-0.1421594732262381,0.3617050368139224,-0.2643038868808563,1.125341362115127,0.4064591639892894,0.0,0.0,0.0,0.0,84.17795256255154,63.718436825710285,88.74217003304216,0.7397769516728625,0.4460966542750929,2715.6401134051325,1553.9397631726972,1.7475839011034624
ab60,1616813856715,1616814156604,0.2782184998081825,93.6571524513096,655.7773102653882,-3.351836796519412,-9.088496119143242,-2.174891568942434,0.348282458500669,0.4099736539491302,-0.4804471941097717,0.4816549203480583,-0.4970281057563599,1.1228580917001325,0.4840963868808557,,,,52.05351170568562,61.19241661813236,49.2450514158881,64.22689987477462,0.603225806451613,0.2838709677419355,1514.1759257766316,624.846905257352,2.42327506631884
ab60,1616813556695,1616813856513,0.1010716255330191,93.22211021505376,653.4902962134072,-0.279366855227882,-7.783273038874,6.446257731233239,0.2889949256032172,0.3735685931635385,-0.1170601327077748,0.1603420851206432,-0.2877412828418231,1.1008579075067029,0.4557037533512049,,,,115.18120805369128,55.21552182328007,45.32067622548017,59.12825635011832,0.6089108910891089,0.2475247524752475,578.0217477833221,327.3329352900225,1.7658527006186686
ab60,1616810856165,1616811156054,0.1762279396130129,80.11925042589438,776.9377317046651,0.6239308908969212,-4.859845174698791,7.098012061579664,-0.0365015923694778,0.5299208815261052,0.1018630736278446,0.1799169919678717,0.0170080167336003,1.71556225033467,-0.3415194089692113,,,,132.08026755852842,94.7810195442332,45.3962016014713,63.17281964304274,0.6485623003194888,0.3067092651757188,2323.265056609064,1008.1332694174824,2.304521760254464
ab60,1616810556141,1616810855964,0.1347936168315948,75.35774269398723,820.8523714632697,1.157158108506357,-5.874429231748153,4.0062053348961815,0.3887592223710652,0.5618436617548573,-0.0205282545210984,0.3943680736771611,-0.2719357153382446,1.1217816496985935,0.5274614822505009,,,,109.40468227424748,76.45691459924753,33.88830043766995,54.40916821634154,0.7044025157232704,0.3238993710691824,1040.8879788381712,1205.357150860554,0.8635515026355787
ab60,1616810256141,1616810555939,0.0624964214142571,79.78636210950621,778.277785092321,2.7558649464166085,-7.890711679839254,1.4828208144675137,-0.184742367716008,0.1748654701942397,0.1178197287340924,0.2363824789015406,-0.2513060864032143,1.1177026108506345,0.6000401855324853,,,,120.96644295302012,102.04006685822525,40.62948613056532,58.91692074575506,0.6539509536784741,0.335149863760218,2236.1047855903403,960.9287933147737,2.327024438384015
ab60,1616835117161,1616835417007,0.2366110367089042,78.33490248823134,787.0035069032284,6.809239747820261,-4.847109175720992,2.8029870905432603,-0.2888402365951748,0.4433988371313663,0.0461879014745308,0.4079634638069707,-1.1378403601609666,1.547840369550635,0.5138967129443316,,,,25.63758389261745,80.97663487622378,61.48234490558096,80.73636851720208,0.7236363636363636,0.3563636363636364,1657.696787252071,1693.7789731093285,0.9786972288414822
ab60,1616836017270,1616836317157,0.0369730666474114,69.77997984548203,869.5305915501431,4.912371886135296,-1.7104851279303437,6.870798645679824,-0.6829042377762898,0.339361411922304,-0.0385137856664434,0.255580959142666,-0.4088412672471538,1.349129264567983,0.2004353670462153,0.0,0.0,0.0,42.07357859531773,90.08687298772251,51.51465302773947,77.79234439588966,0.7636363636363637,0.4606060606060606,3537.4679101768693,1761.9077746214512,2.007748624037317
ab60,1616895494261,1616895794125,0.2287956341394182,72.61369680851064,826.1243689468465,2.2768296551264955,-6.126003484687094,2.9055063555259593,0.0446031756487026,0.4250169574184971,0.0111461450432467,0.2877181064537594,0.1643579647371929,1.0827411756487004,0.2091151084497666,,,,89.67441860465117,99.18956971477388,63.04288608486154,87.129085649031,0.7391304347826086,0.4426877470355731,1475.7690382881674,1707.411902486074,0.8643310007030972
ab60,1616809956106,1616810255939,0.1536260386449678,75.38039083557952,842.1579877180491,2.2084022029470876,-8.610811842598796,0.6564956537173475,0.0282922860013397,0.1897286162089753,-0.0035557789685196,0.1804822826523782,-0.2469926229068984,0.8565036845277968,0.4515070348292024,,,,146.26845637583892,106.60673593683752,44.175731545846624,69.36941492157146,0.7573770491803279,0.4459016393442623,2405.537370595841,2573.049977122163,0.9348972588889716
ab60,1616840234142,1616840534030,0.1243743139679843,67.60879785090665,901.8605270287188,4.9374380415271375,5.551659396517069,3.0507799397186877,-0.2257995110515741,-0.684388331547221,0.0402185793703951,0.5138772900200929,-0.4872806289350299,1.7268385606162082,0.4093101105157405,,,,21.418060200668897,91.38518637051048,53.19247058563802,80.78830225704938,0.7714285714285715,0.5107142857142857,2026.280232104304,1181.4360377838536,1.715099393704982
ab60,1616839624043,1616839923852,0.0858736750759313,70.44978165938865,857.2799357901755,5.5762447568653695,-5.579145603482915,0.7823952980576029,-0.2497734501004691,0.2945654199598129,-0.1125626845277963,0.4092695733422633,-0.5049564554588075,1.467421295378433,0.2902679236436703,,,,16.615384615384617,72.94442989094219,62.8089961654816,88.54271672218525,0.8038585209003215,0.4662379421221865,1466.2289456149615,2395.207721459069,0.6121510600015061
ab60,1616839323991,1616839623841,0.0982525151047783,71.19509738079248,859.983952107119,5.9925477943737295,-3.934018366376426,3.6750694521098466,-0.4342068473895583,-0.0774157463186079,0.1191871030789827,0.3208043253012047,-0.6212383179384202,1.4616599718875511,0.596780459839358,,,,28.923076923076923,94.90861487398044,66.24235211539475,93.2281485713862,0.7727272727272727,0.5162337662337663,1768.8524668164164,1551.472952872539,1.1401117006528545
ab60,1616839023956,1616839323791,0.2894520715285803,71.49412159892509,847.246695017532,3.112826623576683,-4.660205578030807,5.306530523777632,-0.1079066925653047,0.6423543335565977,-0.0389464125920964,0.2860537997320826,-0.4577897119892832,1.34894170529136,0.274561282652377,0.0,0.0,0.0,36.577181208053695,79.09682971665869,57.23274518720327,85.95148674986696,0.7522123893805309,0.495575221238938,1373.8295544126145,1971.563220571921,0.6968224706555882
ab60,1616838723898,1616839023755,0.1234571037441607,71.64509605662285,858.7597712214555,1.379044742799732,-6.052679320830544,1.630143655056933,0.2269266349631612,0.1376636965840588,-0.3545647314132613,0.2906039651707971,-0.7705157642330861,1.305853972538509,0.1589417180174135,0.0,0.0,0.0,31.12751677852349,88.15619317788033,57.71586123848435,86.08914305887399,0.782608695652174,0.5150501672240803,1604.998477108288,1773.5557671462511,0.9049608176070036
ab60,1616838423812,1616838723698,0.1213864048746107,69.19993081978554,903.9782584623044,0.1826799135967844,-9.569247107166772,2.112875196249163,-0.1557806168787682,0.3757336222371067,0.1077720656396516,0.3254156872069659,-0.7520897414601485,1.5297789678499651,0.4939852565304756,,,,35.89225589225589,88.807462431446,47.46297624265079,79.62246859728629,0.8191126279863481,0.5426621160409556,2656.173235461165,2757.471793035704,0.9632639732415836
ab60,1616837523648,1616837823484,0.1764720132305326,72.12869623655914,850.2786549149955,4.024057734092432,-4.360710086403207,6.2644032203616815,-0.0365529839249832,-0.073950350971199,0.0566577769591426,0.1273088821165438,-0.8311386490288015,1.3422839953114536,0.2020763523107834,0.0,0.0,0.0,41.8255033557047,85.43315591019024,45.099275653280586,73.50487262065047,0.7821428571428571,0.5,1298.1429835441477,1569.1990127503962,0.8272647210431531
ab60,1616837223612,1616837523447,0.273320638201236,80.64079301075269,798.98461838544,4.271951200000002,-3.42818895436241,4.906988649664425,-0.2397248713136731,0.1300184651474531,0.0609419617962466,0.1797637004021446,0.3697520542895436,0.920743972520108,0.3630429121983911,11.5,8.779998999999991,0.4100000000000001,54.675585284280935,118.12649583064004,70.63757700582745,103.2195405869746,0.846441947565543,0.5617977528089888,2259.417312880545,2447.3150023980184,0.9232229241706276
ab60,1616809656056,1616809955904,0.3111467482724968,73.74575045207956,908.3591877577568,-2.051800549531458,-4.676153619143238,7.607370953815262,0.5902797208653171,0.6598933886950465,-0.1073616636427075,0.1273718834612699,-0.3952374501032348,1.0046180302821737,0.6354439105299378,,,,178.26148409893992,108.5577019130218,45.90415225070633,70.47059242529502,0.7327586206896551,0.4396551724137931,4358.902186086649,1260.8830762186008,3.45702331032869
ab60,1616809355950,1616809655855,0.1792833852749905,74.81266846361186,804.0740683852157,-1.1237163127930323,-9.403674349631624,3.792586997990623,0.553767397186872,0.5472467515070328,-0.3475552505023444,0.3724709624916282,-0.3167113235097127,1.3889350328198276,0.4956731413261871,,,,166.18060200668896,107.6957602303344,71.81975727636414,97.54254213186348,0.7624113475177305,0.4787234042553192,2654.344538453759,2089.88503691133,1.2700911732334572
ab60,1616809055863,1616809355760,0.1642199232686939,67.4818670248489,902.5486448666258,-1.3551864772423023,-9.125182862115128,4.284619589022759,0.6048325348058906,0.5675016097724235,-0.3438241499330662,0.369187787817938,0.1144645287817937,1.3550669364123145,0.2693172690763054,,,,130.62207357859532,96.7432304714508,68.45252480762649,98.1300112497153,0.8031496062992126,0.531496062992126,4232.026358413262,2671.5464902466133,1.5841110659551347
ab60,1616766287241,1616766587118,0.0911293687217177,83.62026165716203,729.3934213076838,-1.5623835270903033,-0.963340796655519,9.417605709699004,0.5533054394648828,0.5780607712374571,0.0192119678929766,0.0268313739130434,-0.1059130528428093,0.942214054180602,0.491357862876253,0.0,0.0,0.0,109.1505016722408,72.82888541711277,52.49547241213868,73.04524938797373,0.73224043715847,0.3934426229508196,1248.4124817548884,673.9994425961847,1.852245570035068
ab60,1616764174471,1616764474282,0.123065451637531,83.92872665062164,692.0221944078078,2.411472206020066,-4.014271252173917,6.802689072909682,-0.4629819939839573,0.3312194425133692,0.022861486631016,0.2380735982620321,-0.8016053545150504,0.5398662133779265,0.7666287571906345,,,,116.7840531561462,123.58566923677564,79.99603150864637,106.02190248953974,0.7485207100591716,0.4378698224852071,1290.982812125372,1761.5736501466392,0.7328576991475243
ab60,1616763874427,1616764174260,0.1782109524046379,88.5872112959161,542.9597645194156,2.6790566252505057,-4.153724306613229,7.435222383433547,-0.5731544235136948,0.0068422959251836,0.1617618383433534,0.0924007982631929,-0.5012692104208412,0.8293854321977296,0.5313360106880429,,,,150.0066889632107,159.1279883035258,128.83411254892155,211.66327948394303,0.9405940594059404,0.801980198019802,4294.69105633491,6994.032071833768,0.6140508096367484
ab60,1616763574353,1616763874227,0.0351269856947206,90.3745868183339,622.9775104886498,0.9382521612040148,-4.616982473578586,8.710151262207365,-0.1847914615384614,0.6356029391304348,0.0095972060200668,0.0925190916387959,-0.3124481571906356,1.1073578602006686,0.2001672173913036,,,,177.23076923076923,115.4911099172984,80.07824802095698,104.19249486597842,0.6593673965936739,0.4014598540145985,1035.3478318382624,496.43529665540535,2.085564501181988
ab60,1616763274278,1616763574152,0.0417468538715369,88.49436116396716,673.6381319422571,2.531603128514055,-4.122450600401592,7.802752699464536,-0.8051402329317261,-0.0321971057563585,0.1656847771084336,0.0661581318607763,-0.2789692101740295,1.0398326539491285,0.3823293058902278,,,,151.91946308724832,75.53072382422963,58.44802733120536,74.73197902498575,0.6374695863746959,0.3260340632603406,368.1509222663859,461.6687317118975,0.7974352538480535
ab60,1616762974207,1616763274078,0.0225071112515802,84.91110365649111,713.9409968447509,1.5257757478260838,-5.018546127090287,8.196187338461543,-0.1489270321070233,0.5767759525083609,0.0063494040133779,0.117329960535117,-0.4022073525083606,1.082494987959861,0.2460066822742476,,,,164.77591973244148,55.36442507393643,31.81318325880181,53.45636053864568,0.7347931873479319,0.3527980535279805,1933.7081320502537,604.4799253234096,3.198961704171861
ab60,1616762674105,1616762974007,0.0358028500775753,77.16264252179745,778.8078984237862,2.2688055879598776,-5.182871426755855,6.371219147826093,-0.6382485117056863,-0.3155386374581943,0.0280522775919732,0.0020450434782608,-0.0088963464882938,1.0022408026755836,0.1811572020066884,,,,133.81939799331104,74.56173577604228,44.43626421495078,67.11877722082943,0.7857142857142857,0.412087912087912,1264.212791837522,1172.7368195453716,1.0780021320790565
ab60,1616766887413,1616767181783,0.0927056560598271,82.44292549555708,727.1581476235067,1.0750216291751873,-2.0234813769597824,9.147986008861642,-0.4196479120654405,-0.841370982958418,0.0387380974778458,0.0136242985685071,-0.1636196353101568,1.1185207852760692,0.264539873892298,0.0,0.0,0.0,167.16723549488054,66.80323491630195,46.06378188016696,68.36281714772517,0.7563025210084033,0.3865546218487395,867.661975531324,937.5078827760808,0.925498325370946
ab60,1616762373964,1616762673905,0.2489579557230457,86.01382637931,550.5030619166203,4.313847126418152,-1.7840693618314425,2.9728911122366277,-0.4773042993370726,0.0190458510963791,0.2408052468128504,0.2651664370219277,-0.8651216678832124,0.6055028345498793,0.0692335794809399,11.833333333333334,12.2421875,0.7550455000000511,146.59016393442624,132.60655709066262,116.72088597089969,182.44129167610072,0.8838951310861424,0.7340823970037453,1492.5188560530707,5384.961920241633,0.2771642359146151
ab60,1616761674110,1616761965908,0.0600628035778442,73.19637978142076,821.9121839602352,4.186764137388917,-2.665257676691729,3.9688782385509263,-0.7217500950102522,-0.0157367238550922,0.0814586192754613,0.3145417805878337,-0.3897129131920705,0.9956459371155176,-0.0215311134654827,,,,167.83617747440272,59.94802495300637,35.40970331803469,53.10994159922216,0.665680473372781,0.2899408284023668,1287.7867991257522,908.7805488053966,1.4170492544306368
ab60,1616761374043,1616761673910,0.2888842884314309,84.37445414847161,814.7413278370896,1.2984296864181093,0.1694284034620465,4.539554119840216,-0.4200205086436173,-0.2073139501329788,0.0193699886968085,0.2533751416223402,0.0564561190159578,1.5834707613031973,0.3240292859042548,0.0,0.0,0.0,133.1029900332226,123.95492335277775,47.13488156463262,69.77771902523612,0.7321428571428571,0.3642857142857142,1818.5881226595347,1242.8370899956726,1.4632554317041395
ab60,1616761073994,1616761373844,0.1422392531594087,89.06912595546693,678.1117670610217,0.1719332154255323,-5.75559914561171,7.786701402925531,-0.4583539281914893,0.1510018118351067,0.0666475970744682,0.0434170359042552,-0.0945279235372343,1.3700265990691474,0.3587034567819144,,,,145.02325581395348,91.40314363552892,68.1952802689716,88.79562523652359,0.6556473829201102,0.3608815426997245,2133.4088309454737,2616.321348632718,0.815423087099139
ab60,1616760773972,1616761073794,0.1241545376337951,85.17484328623325,692.6321217351531,1.9626316130319128,-5.684226537898925,6.38353686635639,-0.1208950791223401,0.321449472074468,0.0536142992021276,0.1419444647606381,-0.2077659488031907,1.0809042613031916,0.6145013238031907,,,,153.91362126245846,88.7770272390465,50.79858095488007,68.10483558603065,0.6408045977011494,0.3132183908045977,2757.858737300134,2255.368865829325,1.2227972014174444
ab60,1616760473809,1616760773773,0.221613022637887,85.04767156350195,542.0204725374003,0.4443177827185443,-8.114013162708437,5.374048682668026,0.0019272774128347,0.2742793289540165,0.0008363815058109,0.1555559550277919,-0.5159625977766554,0.9099646255684688,0.4528600414350684,,,,95.62720403022672,106.52817566826394,109.02472374460716,141.38635192197475,0.7212543554006968,0.4564459930313589,2338.061021457064,2535.9099223159383,0.9219811007016416
ab60,1616759826330,1616760126210,0.0201057230331731,86.9481555333998,691.715373878365,5.531394506648933,-1.3667026642287232,5.399176763962762,-0.0706552985372341,-0.3580642400265963,0.2082069255319147,0.1928059235372342,-0.5634441575797866,1.1984707513297812,0.4318683364361689,0.0,0.0,0.0,174.6,58.52727139016327,47.76110155704344,62.130704843281535,0.6318289786223278,0.2826603325415677,1207.3525994412294,652.0547814071197,1.8516122170529743
ab60,1616759526265,1616759826130,0.0792742089713016,85.15021601861083,709.6682599261039,1.040290761968086,-6.277317184840417,3.9027971110372297,-0.1524874009308506,0.3542193929521275,0.0210489242021275,0.3266881775265956,-0.1940359168882978,1.274242019946806,-0.0232712825797876,,,,87.32,82.29041589417555,34.17354584048194,53.73330800124462,0.7018469656992085,0.3218997361477572,3365.2894937797387,1278.308019095882,2.63261236220667
ab60,1616759226198,1616759526064,0.1465969151116383,104.75706214689264,575.7567698995688,-0.1787759833776597,-5.211437242021284,8.521646380319154,0.4154949714095745,0.1761015472074469,-0.061837736037234,0.0392924747340425,-0.3172805804521281,1.2307247340425518,0.4738497367021269,,,,167.18666666666667,56.51122184339751,47.79115785272225,61.49484892078491,0.5505882352941176,0.2447058823529412,321.1753773172081,397.321291739823,0.808351789834416
ab60,1616758926096,1616759225998,0.1499944891044261,93.411159083361,647.8648314765053,0.1000867588039866,-5.300151417940193,8.522556841196005,-0.2408405787375411,0.4132633641196016,0.0344797634551494,0.0713954272425249,-0.3122790644518277,1.0369767441860451,0.3588837255813946,,,,175.64119601328903,63.09427613689871,58.93362179107909,71.58474836874495,0.5546666666666666,0.224,1346.3510699255085,1074.4053038363954,1.2531128291326117
ab60,1616757859399,1616758159218,0.3083570901137521,106.70246010638296,582.1048981700972,0.0262303690159574,-5.105028236702123,8.59883560172872,-0.1960307965425531,0.1712100984042553,0.0231340239361702,0.0455203497340424,-0.2316422832446808,1.2057779255319143,0.2834441436170207,,,,165.51495016611295,87.92957807416862,71.0041368117206,86.664358939094,0.5945945945945946,0.2762762762762762,955.1620828214795,1279.98741176842,0.7462277160224846
ab60,1616757259315,1616757559175,0.2411719059624396,100.15443629086056,613.3522823483027,0.4110070718085106,-3.978409680851056,9.069540795877678,-0.1022637347074467,-0.2733544022606388,0.0152238949468085,-0.0050685019946808,-0.2732047845744678,1.1674268610372336,0.4154853710106373,0.0,0.0,0.0,185.3023255813953,78.54743688035325,59.34154804230026,75.1880331486051,0.6125356125356125,0.2991452991452991,1894.2368915159711,2489.447885013868,0.7609064254443788
ab60,1616767213102,1616767478933,0.1520747935117535,86.8001085907336,582.7449513034833,0.1350514821066847,-2.3602327265361223,9.621179525320736,-0.8770422099932474,-0.0041666752194463,0.0308322234976367,0.002052584064821,-0.6279175152129823,0.9594117653820156,0.4339148120351594,,,,152.55218855218854,123.53181447189496,111.95943749185554,147.8111736956861,0.7767857142857143,0.4880952380952381,1070.59093725096,1061.5159219449329,1.0085491089850067
ab60,1616768209166,1616768508976,0.0352658097686374,98.26540922869653,620.378553723216,1.0169800388219512,-0.1824567322623818,9.038270889558207,-0.0524795428380186,-0.3935797215528775,0.0312739484605086,0.0562347710843373,-0.0994712242302538,1.298420356091023,0.5936412282463139,0.0,0.0,0.0,141.20401337792643,56.68974515628633,47.194611788840746,56.24526077185242,0.4456289978678038,0.1577825159914712,310.2816381542113,298.5916284206037,1.0391504939218883
ab60,1616808455764,1616808755628,0.0259505322980868,67.3477088948787,904.168046522746,-2.111338208975221,-4.476342885465507,8.787834225720024,0.8449172752846614,0.4419103898191555,-0.0793045157401204,0.1027830964501004,-0.3120696570663096,1.1741527099799058,0.4259075673141324,,,,193.1371237458194,75.77881394993561,41.939808184036,61.69848259122593,0.6635802469135802,0.3487654320987654,3199.587295621037,1019.0412786230676,3.139801461177639
ab60,1616808155678,1616808455563,0.0416279116995997,66.36253369272237,920.1312273078984,-2.1630363828647954,-4.467465520080322,8.755791231593044,0.6227065461847394,0.7074144096385534,-0.0367560589022757,0.1240670789825971,-0.3362717536813928,1.2851606425702815,0.484892904953146,,,,158.70234113712374,87.56184181143922,39.58616199878867,60.13956276182275,0.6945337620578779,0.3665594855305466,7671.695185438368,964.2145937920346,7.956418866538155
ab60,1616807855666,1616808155478,0.1700480434375072,66.0279183230936,984.9638507739704,-2.021664253851302,-4.617061041527129,8.693199935699944,0.5737964046164289,0.6930734847250506,-0.0379398839103869,0.1253472233536997,-0.0544340160750167,1.5257468265237788,0.2299263235097121,,,,133.45205479452054,88.58100706060665,50.78837386903567,75.10846355741742,0.7307692307692307,0.3884615384615384,2644.6800830524594,1486.0959317399406,1.7796159901709934
ab60,1616807555617,1616807855466,0.1190534664626782,66.74638898219685,915.5652276096262,-2.316415778968518,-5.459539748158075,8.134574377093092,0.7311229102478228,0.5262908472873404,-0.1016021393168117,0.1562651795043536,-0.461352983924983,1.2597186858673808,0.2759678519758875,,,,101.16778523489933,103.22984115459458,60.75895894679816,89.75957093197958,0.7830882352941176,0.5110294117647058,5479.234023405622,2298.233217863836,2.3841070526769546
ab60,1616807255605,1616807555416,0.0998463368692377,67.7662075915351,919.5734488534906,-2.0680799002009325,-5.25365123978567,7.889004795043535,0.3911082150033491,0.8247447387809768,-0.0157391413261888,0.1938716121902211,-0.5238044159410588,1.1367381085063626,0.4048559899531145,,,,94.63545150501672,111.46613367957173,52.74966481825711,77.18382618273641,0.735593220338983,0.4338983050847457,6058.996404217317,2765.262471000643,2.191110778003217
ab60,1616806955595,1616807255405,0.0345531782624463,64.84044339939537,950.3874813742972,-2.438682117883456,-4.341442499665104,8.760905756865384,0.7527714715338236,0.4891770301406571,-0.0596190221031481,0.109989375083724,-0.0869725425318153,1.1919691929002003,0.5121299397186873,,,,158.5819397993311,83.75949042619554,43.00817228052912,66.75600802985696,0.7483870967741936,0.3870967741935484,5294.364190634483,1171.231850028104,4.520338300659637
ab60,1616806655551,1616806955395,0.0264099746007372,64.09268621503202,949.4797733265276,-2.3383550529135912,-4.540814470194238,8.604748823174832,0.4366993148024115,0.8169721915606166,-0.0045442565304755,0.1400947970529134,-0.119182850636303,1.229665101138647,0.5080509075686536,,,,201.685618729097,81.77203912401077,39.86554305192917,64.18728998442322,0.7475728155339806,0.43042071197411,4871.499043335531,1251.7343294883624,3.891799504553591
ab60,1616806355461,1616806655350,0.226858197587,68.29277609257387,892.1022025551025,-1.194669191560619,-9.650901133288674,2.4490275177494967,0.6967999578030808,0.3108073322170127,-0.5246278566644336,0.250337549229739,-0.2350368345612858,1.1302679196249172,0.5525920944407235,,,,154.0268456375839,103.87465721682476,61.25074614384944,93.50702599899464,0.8042553191489362,0.5617021276595745,3086.541167024235,3794.8521664316986,0.8133495144625124
ab60,1616806055395,1616806355260,0.3415816506567339,69.25687907313541,940.0640305658608,-1.0661026450100477,-7.861629178834557,5.356254121232419,0.3381746980474198,0.7128058793584371,-0.1072413493723849,0.3626379023709912,-0.1206597931271479,1.2602405512027488,0.2827422694158076,,,,193.41342756183747,110.56223360153426,60.51676189044832,94.39238888320826,0.78,0.57,2931.303027338593,2928.908289316454,1.000817621374788
ab60,1616805755302,1616806055194,0.102156062833561,71.05911991938193,850.1469976317387,-1.9061911414209127,-5.268390821715812,8.199125370643456,0.634328240455458,0.6998408827863369,-0.0703272210314802,0.1643724085733423,-0.8250435492297378,1.3318285358338904,0.2830006738111185,,,,205.19063545150505,109.3866937996464,58.819586846217696,88.7239100653833,0.8272425249169435,0.4883720930232558,3565.382967721667,2551.2230842205727,1.397519091832352
ab60,1616767909020,1616768208966,0.0233326439345906,98.9077800134138,611.4890642610851,2.047266085561489,-1.1520177286096254,7.791628723930478,-0.8531298890374327,-0.2580157540106954,-0.0030471711229946,0.1299925561497324,-0.4352540113636358,0.8741109719251287,0.1798195207219254,0.0,0.0,0.0,163.29096989966555,48.237522057883,43.2287819998143,51.49124827693495,0.4246861924686193,0.1255230125523012,185.66233951283783,278.0096847190141,0.667826876968289
ab60,1616771809604,1616772109451,0.0952656463594597,80.24454880912445,759.5556068729946,4.91702145180723,-3.197879311244984,5.8188673460508795,-0.4665569518072285,0.3357538969210175,0.1376362362784473,0.306363880187416,-0.79553548862115,0.7382329297188749,0.2979451184738955,,,,140.80536912751677,65.96294753938497,46.5889373915698,66.9272174123786,0.6962750716332379,0.3782234957020057,1600.252139302561,761.2773838847903,2.1020618412916616
ab60,1616771509488,1616771809404,0.2792501516017378,84.07910197230382,904.9045776790904,5.942530191609963,-0.5566201802721094,5.245674897392296,-0.5828688684807233,-0.3256114013605445,0.1403661626984127,0.3256779393424039,-0.4145635051020411,1.0285317454648513,0.5331745895691599,,,,134.92045454545453,80.72348480948742,47.293866550299725,73.57573982226485,0.8062283737024222,0.4532871972318339,2173.8057064214145,1159.1472314339944,1.8753490906691588
ab60,1616770309334,1616770609192,0.1235910210614937,97.21488716739644,639.7607650823214,0.1945089250334669,-2.453716281124495,9.591586301874168,-0.5759642610441768,0.0697995883534137,0.0237741392235609,0.0057698045515394,-0.5444444518072291,1.1275903607764337,0.4262315937081656,0.0,0.0,0.0,159.93311036789297,83.8221987086792,45.21545060955904,59.77792629150002,0.5970873786407767,0.2645631067961165,1917.865787168052,802.3224957546117,2.390392638018
ab60,1616770009267,1616770309133,0.1357866886575267,97.66107382550337,626.5191901672276,0.09571131124498,-1.9198013152610405,9.694814008032123,-0.3702518018741641,-0.0291655642570281,0.0091670261044176,0.0011696532797858,-0.3919812677376166,1.129511378848725,0.3947456485943776,0.0,0.0,0.0,147.6789297658863,80.79882329716229,53.81407689802359,69.18343574754151,0.6401985111662531,0.2903225806451613,1223.062440420798,923.920344937597,1.3237747681629477
ab60,1616769709157,1616770009066,0.3042822595889388,96.01595031992656,509.2869854629221,0.1182940435632506,-1.9784273032672444,9.713909721027637,-0.4550457899195258,-0.2327591639135948,0.0102950288013553,-0.0028864692926726,-0.5413046410519129,1.0399829221311483,0.4549521892076498,0.0,0.0,0.0,150.4957264957265,146.46269600829356,129.1725581943119,199.4901610843394,0.8677966101694915,0.7050847457627119,2645.055274968104,4829.3546753809605,0.5477036690744712
ab60,1616768809236,1616769109119,0.1267194319705304,92.75369562244352,648.0948368779476,3.579800376840694,-0.977610587684072,5.488550524096387,-0.235167454484605,-0.4539838949129853,0.0933915274431057,0.0208791445783133,-0.1001271599732261,1.075863452476573,0.3734270461847363,0.0,0.0,0.0,106.2876254180602,87.86076622033885,58.80796605421584,76.26288294817215,0.6449086161879896,0.3237597911227154,1321.0464637674856,2042.078339599241,0.6469127252124626
ab60,1616768509177,1616768809036,0.037143659309882,98.04162470627728,614.0713861146924,4.103234354083,2.9776339143239596,6.421282071619797,-0.138777797188755,-0.1445897195448459,-0.1363056593038824,0.2575200187416329,-0.4979651947791163,0.8974431010709515,0.2678647958500656,,,,161.81939799331104,41.451378598853225,25.99037376274365,34.87630831646831,0.396551724137931,0.105603448275862,398.46504117747816,493.9318832396862,0.8067206323348808
ab60,1616803635262,1616803935074,0.2979389409622932,76.91638683680323,800.2924939019978,0.2616222029470865,-7.438767865371743,5.762723048894849,-0.1060716878767583,0.1825085639651708,0.0144340864032149,0.1141985083724046,0.0802210401875412,1.7560013456128638,0.1023509899531142,6.333333333333333,4.994791666666667,0.213216333332942,512.6442953020135,97.81613765824542,59.202888431262096,87.46927548258368,0.7918367346938775,0.473469387755102,2479.430992820554,2021.8712391816923,1.2263050904389186
ab60,1616659814919,1616660114778,0.1098140176457702,77.96123661311914,771.0176677809505,1.3765691817576573,-0.450683824234353,9.22942913981359,-0.4836399900265955,-0.3437227526595739,0.0151721123670212,0.0368773364361702,-0.7200606729602155,1.36950775455158,0.349339170600134,0.0,0.0,0.0,766.9530201342282,84.05434989837013,55.56606550734807,80.42284438218519,0.7727272727272727,0.4151515151515151,1785.245267775977,1255.7778902319792,1.4216250195694953
ab60,1616658614624,1616658914525,0.153657212080705,71.60219341974077,838.8160406198623,1.1114104222074466,-2.513497886968085,9.284952075797875,-0.4762010079787223,-0.161375090425532,0.028406352393617,0.0159702925531914,-1.21410901795213,1.3543417619680829,0.6664428105053165,0.0,0.0,0.0,813.0099667774086,89.9526336573959,61.86382935316599,91.9426102392885,0.8169014084507042,0.5352112676056338,1598.901974182529,2140.5914953648285,0.7469440001255461
ab60,1616416341844,1616416641820,0.2136014424402252,73.75395013436476,640.6884657643147,4.805597550105882,5.709315279110783,2.878558025758646,-0.3789155922379023,-0.3314554138104842,-0.2062609662298391,0.2813835670362903,-0.1617681068322981,0.8425507084886136,0.3622898455486533,0.0,0.0,0.0,106.88888888888889,122.62472737037156,115.65786412922807,159.47978561071722,0.8445378151260504,0.6050420168067226,2728.5411445046643,2436.937177877437,1.1196600262306364
ab60,1616415618727,1616415918564,0.0639824115187308,69.87048192771084,860.65121487997,4.395734472739361,5.492480908244678,3.8225755086436073,-0.6063805811170221,-0.4028236888297876,-0.2016811589095743,0.3952985492021281,-0.5620478670212763,1.401256647606382,0.4497872267287234,0.0,0.0,0.0,135.58666666666667,98.52328330326314,62.69735736496752,88.57777883305761,0.8012820512820513,0.483974358974359,4544.087044270705,1593.5359285964462,2.8515748924927244
ab60,1616415318680,1616415618529,0.1023794358110761,76.20146276595744,786.8942439906093,4.964006140479352,6.4094207296937515,-0.3064405965379481,-0.1943566813040584,-0.4921578982035918,-0.3061637165668663,0.602121516966067,-0.0184430991350631,1.2394610745176298,0.3973652754491014,0.0,0.0,0.0,61.4,69.98115330043697,55.51539354998689,76.75104309958088,0.7361963190184049,0.3711656441717791,1509.5520210775196,1930.466279092144,0.7819623877540245
ab60,1616415018625,1616415318481,0.1358838938293164,78.69312875250166,770.8755359029915,4.49800856382979,6.696590950132986,0.6556031815159562,-0.4549303936170212,-0.4673732965425532,-0.4820209434840425,0.3354749408244678,-0.3368749999999996,1.199029252659575,0.345718084441489,0.0,0.0,0.0,68.72,67.7414134744603,57.48859995008344,77.22480312200837,0.709375,0.365625,853.9158886556095,1500.8718513641504,0.5689465678761852
ab60,1616414718544,1616415018425,0.2596217474149928,86.71243351063829,708.4382833277929,3.1290605382568173,-0.5572618110445807,3.788137516300731,-0.0427998063872256,-0.0695427438456417,0.097729499667332,0.4291584530938113,-0.0909115316034595,1.2499867045908168,0.2234131862940782,1.6666666666666667,1.21875,0.0500216666667054,52.33222591362127,80.35891910769398,78.34789219895886,102.03923490219114,0.7068965517241379,0.4344827586206896,626.7330910365333,880.641476104015,0.7116779166582293
ab60,1616413818434,1616414118242,0.0900405720321222,79.34419687396075,756.9007768909579,7.513700244843633,3.5071647252162315,3.882586359281436,-0.5275441197604783,-0.4889987205588813,-0.0305256480372588,0.4452594817032596,-0.1729740472388551,1.5498735834996686,0.5129607558216899,0.0,0.0,0.0,38.7906976744186,69.23488609992368,48.40088736543566,69.66680843380792,0.7055393586005831,0.4198250728862974,2260.1832771465947,1282.5200216621963,1.7622986300185068
ab60,1616411716494,1616412016334,0.2559315034341534,88.16392617449664,702.8914434661248,4.128333836992681,-1.3621576640053248,6.291985209580831,-0.0862970325797871,-0.0055073736702132,0.0057920984042553,0.1663240159574466,-0.107749656458056,1.098888137150467,-0.2950998668442082,1.8333333333333333,1.40494800000306,0.0666503333333518,602.7774086378738,85.06535785147342,64.07374585030777,88.15361946087322,0.7425742574257426,0.4356435643564356,1063.0145164698506,4140.808690860564,0.2567166454263139
ab60,1616411416475,1616411716298,0.3496882253880113,87.6502659574468,702.0153748454825,0.4070345815036592,0.2905727298735849,7.977933345974715,0.6288872827677965,-0.0023241343978709,-0.0020897904191616,0.111779377910845,-0.3456220705256154,1.2454224790419155,-0.1863872388556227,0.0,0.0,0.0,712.6910299003322,82.04942498050337,68.15645886743219,94.84757491075273,0.7579365079365079,0.4801587301587302,1583.6514080153531,1885.8508454798043,0.8397543272370702
ab60,1616410816410,1616411116243,0.2899020959787919,87.03025265957447,694.5134562163233,3.81513423368842,-0.5358441211717702,5.639769838215713,-0.0110370479041915,-0.1438023200266135,0.1484402235528941,0.2597231563539593,-0.1397205622089154,1.3788556187624728,0.7658549580838324,,,,477.328903654485,79.84794046403894,61.7340802953019,85.98862491919034,0.75,0.4456521739130434,985.555991863784,960.466347387169,1.0261223566498383
ab60,1616410216323,1616410516176,0.213049826204893,89.71343085106383,677.3011263524542,1.9770573486360596,-1.1722506506986057,5.6575656420492395,-0.1334792634730541,-0.3388509354624088,-0.0692213759148371,0.1808712242182301,0.1231869547571523,1.5499201543579542,0.0902128948769128,2.2,1.7765623999963285,0.0599608000000444,520.4916943521595,74.66734111277584,58.63844095637515,76.98043141727169,0.6646341463414634,0.3292682926829268,1689.1372580300997,1365.9134510961271,1.2366356423787976
ab60,1616409916279,1616410216124,0.1731959956021063,91.92021276595744,662.6257407686802,4.577332854388297,2.1410018996010636,4.2738437287233975,-0.5821562805851067,-0.2231055106382976,-0.1731397001329786,0.271513896276596,0.0348138277925527,1.8458311256649005,0.0471010511968082,0.0,0.0,0.0,511.16,70.05189796543301,60.243305280905744,73.69226499965879,0.5777777777777777,0.2555555555555555,1688.8550322266278,1099.490203055749,1.53603463453598
ab60,1616416642019,1616416941908,0.2168500877706262,70.99534729145896,869.1686413683138,5.306708285143237,5.984685348434377,-1.5809543397734818,-0.0109617353723403,-0.5581233530585099,-0.1581216170212764,0.6875007367021276,-0.4713829793882977,0.943836435505318,0.1282247340425527,0.0,0.0,0.0,39.2,86.54193248759826,62.64703315598521,84.14113713970941,0.7170542635658915,0.4031007751937984,2394.947110562736,1311.169980266512,1.826572562373593
ab60,1616550332329,1616550632192,0.109975575642444,80.67194341529134,749.5126612801557,2.58648076897019,-7.233058598916006,5.142634638888899,-0.2304600429958386,0.0038962087378638,0.1106140436893204,0.1026825090152566,-0.4319465400959547,1.2119739540781365,0.2722755346127481,,,,0.0,82.2764885989994,62.86957798714391,86.4438359113951,0.7374631268436578,0.4336283185840708,1417.0937957746617,998.1131668719122,1.4197726698825497
ab60,1616550032306,1616550332127,0.2073327549344653,87.04787592717464,705.159289290251,3.261117328418236,-4.352913233243967,5.954899947050942,0.2372352815013403,0.2671194959785525,-0.1806985315013409,0.2481854068364607,-0.4487600435656829,1.5480697117962443,0.4528887432975888,,,,0.0,69.38794975835091,59.58262197425668,79.25330397740336,0.7204968944099379,0.3602484472049689,1848.053383221514,911.0554369568712,2.0284752258264604
ab60,1616549732301,1616550032104,0.3469187331205499,93.09714285714286,674.6222108328479,2.4390223873994654,-2.799222388069702,6.941337875335108,-0.2355855046916891,0.1017927332439678,-0.0401681152815013,0.1718956172922249,0.2026340710455763,1.9913404758713156,-0.3620576273458444,11.333333333333334,8.427083333333334,0.399902333333254,0.0,90.51816987554676,61.479312119106766,82.15957521718902,0.6951672862453532,0.3903345724907063,2228.847074676114,3875.7253252882606,0.5750786982073715
ab60,1616424035903,1616424335728,0.0719514842350899,73.4875373878365,837.9369220769064,4.5412479999999915,6.820285886303201,1.6194795405585114,-0.346437725398936,-0.5244822679521276,-0.2186755571808512,0.3958487380319145,-0.3250365961410512,1.3889155036593477,0.3955489028609438,,,,52.451827242524914,63.23281193010509,37.54302685708996,63.37742311902499,0.7469879518072289,0.4427710843373494,1700.1784775500234,1212.8678979038036,1.4017837230983172
ab60,1616422156901,1616422456757,0.1700499538288664,89.64394946808511,682.3905760738658,8.849530512308736,1.1623832508316707,3.505758989354619,-0.6062340558882234,-0.4688457478376578,0.17765298003992,0.500549502328676,-0.3491616753160347,1.3072255482368602,0.3671390558882235,,,,77.06312292358804,81.68811424224745,79.8110791001714,102.26848625397014,0.6887608069164265,0.3948126801152737,1946.660719691332,1834.0208466236263,1.0614168989818582
ab60,1616420306750,1616420606565,0.2423871978376386,75.76429521276596,799.9910710134282,7.046641308715908,0.3020433013972062,1.8513537658017296,-0.2380310798403193,-0.4003892282102464,-0.0987520425815034,0.428149419827013,-0.558975399201597,1.171137725216234,0.3832534923486358,0.0,0.0,0.0,129.43521594684384,83.56640987858192,54.53699230859991,89.62442363481956,0.8488372093023255,0.5813953488372093,629.5088578028162,1764.220123205648,0.3568199055903394
ab60,1616419091577,1616419391411,0.1327589231943778,70.10738031914893,852.5242662032163,3.946253271457087,3.059977562874254,2.1783776447105794,-0.1280837400265956,0.0264463397606385,-0.2484320332446805,0.4017653051861707,-0.281489352393616,1.1929787194148938,0.336037238031913,0.0,0.0,0.0,172.8372093023256,84.83469255848377,56.826341700301775,81.50625630766376,0.7857142857142857,0.4571428571428571,1487.162668293499,1024.6159073183078,1.4514342961801163
ab60,1616418791553,1616419091378,0.020611359534456,70.04369579719813,857.1591899472943,4.588149041916167,5.4514979228210185,0.2580268423153705,-0.4934825182967405,-0.426666343978709,-0.4713712302062537,0.3321721091151031,-0.1189487658017293,1.236107791749833,0.2041783073852281,0.0,0.0,0.0,107.20265780730897,66.080741675405,44.07493889519001,69.41645849158282,0.7928994082840237,0.4733727810650887,885.6737730363293,1272.1232380491992,0.6962169596040946
ab60,1616418491544,1616418791353,0.1637015605735365,67.67918882978724,883.6219715510414,3.526996680851066,3.0401193397606376,1.8759061156914896,-0.200354376329787,-0.5204922859042551,-0.0709838550531915,0.4245830811170212,-0.6276263251329781,2.139654277925535,0.2082778929521272,0.0,0.0,0.0,131.85382059800665,93.83635269035088,55.60049958603703,83.51692546996385,0.803088803088803,0.5096525096525096,3254.636703760096,1502.2670298807634,2.166483480648856
ab60,1616396552651,1616396852465,0.1197980748663102,77.70944148936171,786.6009097928495,3.917034724550904,-3.214923545575514,6.876972227544894,-0.5011478888888892,-0.2061558003992016,0.1360637817697939,0.1446907431803058,-0.2810711749833665,1.179707255489021,0.4468263506320677,0.0,0.0,0.0,612.7308970099667,90.7422355678833,51.26775792213108,73.84817628105642,0.7103658536585366,0.4146341463414634,2399.0907329491083,1573.8969847354035,1.524299719878066
ab60,1616396252567,1616396552452,0.1160814678247154,76.93016666666666,784.7462866273353,2.5204361090425516,-1.625108399601064,6.133493260638288,-0.4792706090425528,-0.5607456695478719,0.1384687227393617,0.127187130319149,-0.0439361921542552,1.2295611715425494,0.363450805186169,0.0,0.0,0.0,512.0132890365448,92.4618846150992,39.93611144204485,63.37678380719096,0.7239263803680982,0.4294478527607362,2822.4983872807265,1418.791792754893,1.989367574364264
ab60,1616395952562,1616396252368,0.1626299502690875,74.28018236380424,832.852079572871,3.632716811835103,-6.8115785246010825,4.6824483962766,-0.7138507200797867,-0.3032669122340423,0.3021967433510637,-0.1769881808510641,0.3085080658602155,1.3904973071236568,0.4716532211021495,0.0,0.0,0.0,316.797342192691,84.99527634621123,49.58685350840051,74.73175976456223,0.7551724137931034,0.4620689655172413,2041.2821024840948,2174.555367184865,0.9387124068156962
ab60,1616327431880,1616327731760,0.3455846146399702,102.99268860086408,597.055135189669,2.560142015292555,-3.773743795212772,7.622344428191485,-0.2192206117021275,0.5750279986702121,0.0058903231382978,0.1835448543882977,-1.067220774601063,0.8603390904255329,0.1210106449468086,0.0,0.0,0.0,,61.93988445122745,47.148250553292975,58.0842225294615,0.5302013422818792,0.1912751677852349,1388.0618838698858,428.1201442172848,3.242225115119554
ab60,1616328032062,1616328331947,0.3270930695882896,107.5928880026587,560.0884930619039,0.9870854567819164,-3.4235484714095707,9.24960704188831,-0.7270961356382971,0.4555274787234025,0.0411900644946808,0.0469439122340425,-0.0861037240691489,1.2186236682180844,0.3690359035904247,,,,,66.14576779175502,61.54499381424601,84.40888795702368,0.7003154574132492,0.4100946372239747,501.9887762338034,670.0576892907809,0.7491724731420227
ab60,1616300923231,1616301223114,0.1649250578412634,100.11077542799596,608.3857593079614,3.055922969189554,-1.4290151466845278,7.960084263898206,-0.4494572310783669,-0.4514542431346274,0.0545684561286001,0.0616420401875416,-0.3097253858004016,1.186249166108506,0.2632150100468854,0.0,0.0,0.0,218.8628762541806,73.19297811378951,66.70837809861737,80.8873444098787,0.5692695214105793,0.2468513853904282,2521.952243723979,1310.297983559248,1.9247165723886983
ab60,1616300623219,1616300923030,0.158615528314256,115.76158495634654,538.9770011635394,5.254349999330209,-0.5960163898191518,5.924300304085733,-0.6863712719357002,-0.2401735766912264,-0.0289446021433355,0.2883208225050231,-0.576363025452109,1.092150032150032,-0.0098928372404557,,,,182.25503355704697,73.37095347014886,46.2882254029711,56.32630815748377,0.4678111587982833,0.1802575107296137,524.3231196448161,505.9556371292248,1.036302555338266
ab60,1616300323167,1616300623018,0.2935642545013612,117.77433479285956,526.1703318224058,0.8529115455153948,-3.7205989410977263,9.161948131860788,-0.7700521753681387,-0.4588371773761711,0.0698990876840696,-0.02690578313253,-0.2347858132530118,1.1819410990629162,0.5352141880856756,,,,197.06040268456377,69.7649593545659,58.44059536311055,77.64404905397924,0.6728232189973615,0.3509234828496042,690.498465498303,1210.1263772914176,0.5706002930403193
ab60,1616380046594,1616380346459,0.293526585995118,76.71909363545485,795.6764714231058,3.4993519162234095,-2.3523244268617014,5.827076759973409,0.0135880777925532,-0.1169050624999999,0.1827224900265957,0.0483731642287234,-0.8642486535904275,1.6659906994680842,0.8071875132978722,0.0,0.0,0.0,507.60132890365446,90.90185103085484,50.18367868209637,71.65815426059747,0.7291666666666666,0.3875,2091.835975779146,1848.3920730459588,1.131705770806524
ab60,1616337639568,1616337939370,0.0332543091644562,85.23441147049016,705.4749768170899,1.3004815890957422,6.785659950797859,-0.7424161901595754,-0.0362462373670213,-0.2940473942819154,-0.2209459920212771,0.5244216083776594,-0.7368616941489359,1.0383178191489375,0.6085904315159547,,,,,48.8292216810385,32.12178537515401,48.33450944363313,0.6518518518518519,0.2518518518518518,511.2062420986832,395.8714468434025,1.2913440617527143
ab60,1616337339523,1616337639370,0.0124331334867446,88.90537236226882,596.2725586239516,3.620903091633456,7.13274683598936,-1.2406276792828672,-0.1954994077025233,-0.5753869462151392,-0.3408468871181935,0.6181311314741054,-0.389322709827357,1.1374302762284183,0.1975431593625493,,,,,137.26307586386037,98.25191905354636,129.89697946914006,0.6943765281173594,0.4596577017114914,1646.7679279017086,3296.945614430494,0.499482891283958
ab60,1616329155903,1616329455729,0.1004457884111507,103.82920650777794,572.3483362131432,1.7024853470744703,-4.563338672872337,7.991847797207454,-0.5857583550531922,0.4383299694148934,0.0492245498670212,0.1229672958776592,-0.1319946542553194,1.1979122347074462,0.6024002779255311,0.0,0.0,0.0,,58.41878194353278,58.0418034554294,69.0614376785695,0.4754464285714285,0.2053571428571428,154.13168383605128,140.20435207571373,1.0993359446703657
ab60,1616337039509,1616337339324,0.0855449271890347,97.107012296444,614.073677762799,1.1340451841755343,5.867428591090412,1.8422220325797831,0.1160400026595744,-0.0621313537234038,0.0699996070478723,0.391305197473404,-0.6892880851630064,1.048928822355288,0.2136327411842973,,,,,59.486347913127815,59.65154629305516,66.95845800411136,0.3403263403263403,0.1212121212121212,778.5267275931768,665.3009865395692,1.170187243585086
ab60,1616336139400,1616336439218,0.2401434977578476,94.49152542372882,639.9642445104165,2.7522439740691484,-5.4841585498670185,5.108926094414904,-0.4401507519946807,0.2928501628989373,0.1192037147606382,0.2185108244680849,-0.3611702107712777,1.1686835146276566,0.4644481303191483,0.0,0.0,0.0,,65.02371041114397,46.32347073598554,61.43421264371335,0.6227544910179641,0.2544910179640718,1238.1585136480185,551.4901614901726,2.245114419271616
ab60,1616335839348,1616336139201,0.0836450952437102,92.97707641196013,651.4751749853431,4.194673695016613,-1.5789465415282415,6.567943571428581,-0.8342874411960124,0.0958146671096343,0.1042194491694353,0.1705934106312292,-0.7210697661129567,1.0449302252491668,0.4884186026578058,0.0,0.0,0.0,,58.85169056043195,30.5298404034272,44.13772215631557,0.5759036144578313,0.1951807228915662,1658.4636260885766,520.108379128605,3.188688536160836
ab60,1616335239273,1616335539072,0.0954206411102446,99.7148554336989,607.2013025368342,1.058707878324468,-2.270861854388299,9.513414142952128,-0.810529355718087,0.288994045212766,0.0191525851063829,0.0252800299202127,-0.4865093045212761,1.1823670113031886,0.36992022074468,,,,,47.14922163342314,31.3664980353612,39.59985695807972,0.4022988505747126,0.1264367816091954,940.6670262596762,637.4028947802778,1.475780913395346
ab60,1616334939180,1616335239070,0.0414504376500622,99.94266729947792,591.9990450242566,1.08690468351064,-2.533808241356384,9.466513861037235,-0.3191895990691488,-0.0660862160904256,0.0140055378989361,0.0009405492021276,-0.1738589587491682,1.1557218895542218,0.3459481151031267,0.0,0.0,0.0,,69.687906181564,57.46411436689189,68.70034254171856,0.4914529914529914,0.1858974358974359,1178.3130731380038,2480.318240063659,0.4750652775539649
ab60,1616334334302,1616334634125,0.1329368614623289,99.18539513171056,610.8687648019426,0.9555937639627669,-2.72790530718085,9.452460837101086,-0.381781517952128,0.2234650013297875,0.017351525930851,0.0127666688829786,-0.3310571821808512,1.2201130325797838,0.4523470731382967,0.0,0.0,0.0,,57.68309836827169,49.65416417159689,61.66487441786772,0.5036674816625917,0.1907090464547677,656.5293966599428,484.188872182488,1.3559365660359513
ab60,1616333700621,1616333944957,0.3419240199165949,97.25320774037156,602.7948100855106,1.9687562854812384,-3.411171661500808,8.161570618270797,-0.0708065163132137,0.7607157357259371,-0.0109322487765089,0.0980044241435562,-0.3977895505709625,0.9350652569331156,-0.0406525277324636,,,,,102.22494880472256,87.78556009601147,110.98045475946844,0.6518771331058021,0.3754266211604095,1523.0296365995648,7034.260545783594,0.2165159545465634
ab60,1616333400600,1616333700422,0.1349305222807857,101.26354270521767,600.1699735271682,1.117120432845745,-3.053895573803191,9.359506667553203,-0.8163703344414902,-0.3171752054521279,0.0518377892287233,-0.0022425831117021,-0.0574335152925531,1.1737566489361704,0.399940158909574,,,,,64.18516536437558,52.05520992986011,64.81656405084362,0.5204819277108433,0.2240963855421686,1257.4449143734723,921.8428808842745,1.3640555678721225
ab60,1616554233160,1616554533033,0.3403366898354423,90.65230562100302,677.2216717983005,4.987867605898127,-0.2355743404825747,4.334543676273458,-0.0825206329537843,0.0694543998660415,0.0669458131279303,0.3387332150033489,-0.2465706758204952,1.1879839350301409,0.220314819156061,0.0,0.0,0.0,37.70469798657718,62.78196730260504,48.8030271918518,66.03685150861261,0.6814814814814815,0.3,869.9368980691829,880.9682844810288,0.9874781117479792
ab60,1616555133336,1616555433232,0.1701037917123947,89.64976494291471,677.0717755906295,4.44266920950468,-0.9274013253012052,5.112271961178047,-0.1737621686746989,-0.0790922851405622,-0.1810239243641231,0.3628143601070946,-0.6091499310575642,1.131104416331991,0.0864457858099051,,,,3.8528428093645486,63.19529137513435,50.052915040774735,73.06273355137643,0.7542857142857143,0.4342857142857143,985.0711013041486,1062.1422226034676,0.9274380401615084
ab60,1616639090621,1616639390435,0.0834945318365213,75.72240691489361,794.5803012775182,7.7419839361701825,-4.749245406249996,3.90753344547872,-0.4094168776595737,-0.5800959607712759,0.4230328710106385,-0.1550319753989361,-0.3813231309840422,1.197167555851063,0.4202327140957435,,,,263.7076411960133,79.46129816363877,40.55068951602516,65.26424994688533,0.7313432835820896,0.4417910447761194,1711.4400732302204,1592.7436255787218,1.074523260206658
ab60,1616638190361,1616638490245,0.2971411161548966,81.38191223688905,779.9090410650247,1.1247061748670233,-3.678629089095744,8.312649941489374,-0.5322156830265848,0.0101855923653713,0.0633747505112474,0.0603350102249489,-1.1142020188552173,1.4723097542087509,0.2390370350168358,,,,670.4305555555555,98.32299952088972,64.78527810420184,93.97106358957444,0.7686274509803922,0.5137254901960784,2008.0782027877488,1627.685367242395,1.2337016988669078
ab60,1616637890273,1616638190161,0.3347795820928394,84.783927975992,732.376411591527,1.5479001063829758,-4.169569810505318,7.928901007313841,-0.0518910531914891,0.1810093377659574,0.0692633164893615,0.0019635784574468,0.1866356662234043,1.5174733996010643,0.3015957393617019,,,,633.6079734219269,104.91808279758423,77.2964561677341,106.46571783610094,0.7673469387755102,0.4693877551020408,2603.114931116459,2460.371088623001,1.0580172003944934
ab60,1616637290230,1616637590053,0.03347341859473,73.25199468085107,815.7724751936289,7.149981497340434,-1.4562473597074466,5.671643509973398,-0.3698117267287235,-0.5561032307180844,0.3179464441489358,0.1236211868351063,-0.4921409428191491,1.3506183557180829,0.2021808583776592,0.0,0.0,0.0,457.9933554817276,92.41568780027949,47.278125285939424,74.49092463639688,0.7572254335260116,0.4710982658959537,2461.116476603977,1568.083468028511,1.56950604147255
ab60,1616636990195,1616637290030,0.0740362490707634,75.38092061374249,799.4955971605591,6.857850318695943,-2.226098779773787,5.183920473719224,-0.7256256773120439,-0.2281662228875581,0.2690385382568195,0.2976274291417168,-0.5232534950099792,1.2465402568196913,0.4377445029940111,,,,510.0996677740864,87.39818655557526,58.58700443663589,81.33976761905673,0.7313432835820896,0.444776119402985,2170.2393975550235,1723.7629084022356,1.2590127023713658
ab60,1616636690125,1616636989995,0.173455195708325,78.640625,767.9588545770947,7.231455210771273,-4.147332761968082,2.9445082593085132,-0.3970498909574468,-0.6159008583776597,0.3426603404255318,-0.1754885026595742,0.1274800511968086,1.3885505259308475,0.0978789820478715,,,,360.09302325581393,97.735435035681,58.66633204999847,83.8136708677957,0.743421052631579,0.4605263157894737,4534.328144175595,2076.5579951401605,2.183578862130236
ab60,1616636069431,1616636369273,0.0425932533691981,72.69637512470901,820.4678451528565,7.723857881570199,-0.8837539254823691,5.0316395282767745,-0.7288301051230865,-0.2569760904856954,0.1690481902860943,0.3948976460412506,-0.4193479687292079,1.5133599461077831,0.3431071297405181,0.0,0.0,0.0,560.4119601328904,91.82577981079297,42.76162221313627,68.08867842397635,0.7565982404692082,0.4222873900293255,2207.6186454719023,1291.4523416839647,1.7094077529747012
ab60,1616597026777,1616597326663,0.3054829733829483,110.8684122188654,550.0779513888891,0.4646176084337339,-2.6260972014725565,9.50692136345382,-0.7997442068273102,-0.384774107095047,0.0391348507362784,-0.0025540502008032,-0.0090896934404281,1.161606428380189,0.465073628514054,,,,174.95652173913044,72.52640579131746,65.9504601112859,88.32140256187115,0.7031700288184438,0.4293948126801152,1868.7073628687808,839.1104352482278,2.2270100386917187
ab60,1616596726725,1616597026576,0.3478425816842387,112.54951325948304,555.8986782706634,0.464167550870147,-2.9100727295850084,9.438541751004024,-0.398578551539491,0.5455331767068268,0.0120451137884872,0.0297747523427041,-0.4884538212851401,0.9336144531459164,0.4119879444444439,,,,164.46822742474916,74.51330438459354,68.13480549515728,85.32090750391937,0.7147239263803681,0.3312883435582822,1516.9512593183038,1671.783627452012,0.9073849237477636
ab60,1616595225592,1616595525438,0.2217445888535959,93.28557046979866,656.5137734065037,3.2190495321285155,-0.5967065327978589,7.8209968005354735,-0.4186628025435069,-0.7508705441767073,0.1294182188755018,0.0916463768406962,-0.0780588982597055,0.8686747074966524,0.2114993353413649,0.0,0.0,0.0,154.22073578595317,88.17357557810521,55.42623922379919,72.35247979146381,0.6363636363636364,0.3431085043988269,1059.2499870165752,1423.813758654073,0.7439526276371154
ab60,1616594925536,1616595225392,0.1454062665958576,94.78187919463087,639.6796670875138,0.90359965595716,-2.381560025435074,9.396728206827325,-0.8204843614457832,0.4924996338688087,0.0268032369477911,0.0360269417670683,-0.2863721599732266,1.11522088085676,0.3248393587684063,0.0,0.0,0.0,167.45150501672242,77.31649169693503,57.58182453616464,73.2544985956026,0.6052631578947368,0.2894736842105263,1706.8203552410798,910.723142920727,1.8741374571499696
ab60,1616594625487,1616594925334,0.2320344810592994,100.26491828202204,691.3077079770047,0.9172475981245828,-2.7955700931011367,9.331099571332889,-0.8753422376171358,-0.3204996318607768,0.0468332315930389,0.0088395890227576,0.1428580930388223,0.701358765729585,0.1334404283801869,0.0,0.0,0.0,186.8628762541806,77.23808769020273,53.00622969379488,69.89930200085689,0.6475409836065574,0.2950819672131147,1797.321605916037,1336.154816079942,1.3451447274568693
ab60,1616593725335,1616594025168,0.241543957413875,96.5118555195477,578.1373868428902,0.9087623736631004,-2.122012985962565,9.320160915106952,-0.8933834893048126,-0.2853346878342244,0.0318809177807486,0.0200750274064171,-0.2706885040106954,1.2109157733957234,0.6045922453208548,0.0,0.0,0.0,176.73578595317727,133.5397208106501,110.61807710406072,160.0269472791546,0.8504672897196262,0.6105919003115264,3295.179617668435,6330.351638902431,0.5205365840055861
ab60,1616657714420,1616658014298,0.115314059150494,70.30743581193731,853.3180709698934,1.868664020611701,-2.661595159574466,8.112044186835119,-0.3113100930851064,0.0931883656914891,0.0790607247340425,0.1149915319148935,-0.3386901549202125,1.2149002646276594,0.5095944261968077,,,,679.2691029900333,97.48043861223154,67.88188882122225,104.42266588930616,0.8625429553264605,0.6357388316151202,2780.813770534043,2423.00460944091,1.147671679904767
ab60,1616656214218,1616656514111,0.2062961833040634,107.09284523015344,521.9543017672158,3.712342514304721,-4.948955790419152,-6.545890280771786,0.1736110664893619,0.0491869714095744,-0.564022775930851,0.5253013144946799,-0.6362366988031919,1.0800664966755318,0.7573869920212765,525.0,405.375,17.799803999997497,3561.5804195804194,72.26519848075623,67.00449187199105,103.89001143648792,0.8508997429305912,0.5989717223650386,58.53099504132927,309.713760513793,0.1889841605495039
ab60,1616653213661,1616653513509,0.1632203601424039,77.20073113991359,780.7638174503403,2.0415693144946783,-1.4244883477393624,8.192329441489358,-0.1867623696808511,-0.3477432706117008,0.0855969860372339,0.0713527992021277,-0.7630651449468071,1.04380985106383,0.384999980718087,0.0,0.0,0.0,751.6279069767442,92.17311341284535,67.4289360348125,90.81871436005852,0.7391304347826086,0.451505016722408,2181.990117767408,1002.1783481948676,2.177247315008978
ab60,1616652313508,1616652613378,0.2622438861111692,79.43004320372216,766.3677574582191,2.5666570458776574,-3.6420208118351023,7.093222004654271,-0.586325033909573,0.2385408125,0.0783877200797875,0.1610658178191489,-0.713450797207447,0.9546342952127652,0.4819481316489344,0.0,0.0,0.0,653.1694352159468,89.21464830397119,51.41217207247959,74.68495519296832,0.6840148698884758,0.4535315985130111,2289.570080584024,1655.605865159822,1.382919768989223
ab60,1616652013477,1616652313310,0.340386681642676,81.86614566012638,773.1864493381614,2.577742950797874,-3.287397825132976,7.557951413563829,-0.0851793304521277,-0.3527792094414895,0.0037208051861702,0.1092824335106382,0.6680718244680861,0.9399733982712744,0.0108909773936166,0.0,0.0,0.0,686.3654485049834,101.6609070858416,57.24800973245262,76.71601047819627,0.6693548387096774,0.375,2437.5411230103123,1310.164430898769,1.8604848868765007
ab60,1616651713431,1616652013268,0.2710625886165687,82.03722166832834,726.7989576014685,0.207383253324469,-3.907557321143619,8.08090884840427,-0.4079614501329783,0.1476471143617022,-0.0491922014627659,0.0676613543882978,0.1619215492021277,1.1580717958776583,-0.015684871010639,0.0,0.0,0.0,664.7707641196014,71.89349676861248,47.39431123062632,67.39457269189323,0.704225352112676,0.3767605633802817,1151.352252289199,858.172702075243,1.3416323421905472
ab60,1616650513217,1616650813062,0.2778640310669221,84.74858286095365,716.36046277721,3.368889011968085,-3.4216918098404228,6.080599799867011,-0.3280450126329786,0.0609337180851062,0.0806774069148937,0.1700472925531916,-0.4229340951430467,0.8686892887558224,-0.9686826274118452,3.25,2.494140625,0.1149902499998916,532.5049833887043,92.47215567293163,61.634555663069015,83.674301534821,0.7210144927536232,0.4021739130434782,1601.9813814386575,1183.5887395456236,1.3534949496508843
ab60,1616648112881,1616648412723,0.0029123087047228,71.2073778664008,843.1858246353219,-0.1897377865691491,-6.679028226728727,7.605920849069154,0.6407151974734044,0.6978353377659575,-0.1676660751329784,0.1918337719414895,-0.3299401595744659,1.1474601063829706,0.3978922872340442,,,,47.10963455149502,79.95934739020078,42.9219972916388,70.66935465231973,0.773371104815864,0.4730878186968839,2341.6780116179693,1741.691316673404,1.3444850928524623
ab60,1616647812852,1616648112682,0.0431876795770601,72.53251083694565,837.2062691417368,-0.365702539228724,-6.7284231269946915,7.555983319813804,0.8346515904255312,0.4486905292553187,-0.2240583956117019,0.1326858337765958,-0.281070480053189,1.1534175531914852,0.3859308510638326,,,,42.285714285714285,94.28974806026908,47.00859749139765,74.2303927263873,0.7631578947368421,0.4941520467836257,4087.411996845357,1932.8336292739348,2.11472520704267
ab60,1616647512833,1616647812652,0.0223071337810855,73.23363243602526,821.3048141290415,-0.3164746542553189,-7.174711567819151,7.159328481382969,0.6181799527925534,0.7103062526595737,-0.1878818284574468,0.2347725871010635,-0.3145811170212748,1.1647739355053168,0.3839295212765986,,,,126.03322259136212,104.31873953732588,47.38001585613,76.98210246315077,0.7853107344632768,0.5310734463276836,3426.6431093184874,2188.271437692676,1.5659131907929833
ab60,1616647212815,1616647512634,0.0913985479168243,74.84029421711193,812.2537363967109,-0.2372012626329788,-7.185243813164878,7.123779753989367,0.8431665323014799,0.3909545800807542,-0.2696354078061914,0.1334349757738897,-0.3154424451097793,1.1478509647371913,0.3947571516966084,,,,172.96321070234114,106.67465593300264,50.53423334956807,77.81676216349041,0.7469512195121951,0.4847560975609756,4091.518491989556,2339.8508448242933,1.7486236360065082
ab60,1616646912788,1616647212616,0.1185709215083901,81.45862412761714,750.5373416064656,0.1300508650265966,-6.187778856382989,7.762297501329773,0.2639163896276594,0.3394986163563829,-0.0242307260638298,0.0545501090425531,-0.0993218031914886,1.3463829793882969,0.3480452114361735,,,,179.41528239202657,86.42909454074798,42.5502590119992,66.52236316192226,0.717201166180758,0.434402332361516,1497.540842423521,1268.820811418118,1.1802618848517863
ab60,1616643312257,1616643612055,0.3109618832704985,97.52726063829788,621.6686459987297,3.9558544414893606,-3.552051323138299,5.9642265312499925,-0.0561277353723403,0.0733479940159574,0.1194534853723404,0.1145556396276595,-1.1770612267287222,1.5669481535904266,0.3090890997340424,0.0,0.0,0.0,413.92691029900334,68.23498473394848,61.12978002452968,75.55054891639956,0.5794701986754967,0.2549668874172185,749.3343023705331,762.6690597564091,0.982515670177921
ab60,1616643012243,1616643312058,0.2684410805824326,95.13929521276596,637.4594568183209,4.328433028609445,-4.789332399201599,4.845437172987359,-0.3875041104457757,0.3747012009314703,0.0818687811044578,0.3700861869594143,-0.1712042628077178,1.4053093739188325,0.4997338616101133,,,,404.2923588039867,56.456174373782304,43.354044458133416,57.4932168842575,0.5482866043613707,0.2585669781931464,1254.8257334466996,800.3324301506373,1.5678806533061749
ab60,1616651113331,1616651413174,0.2189881447673028,80.92066666666666,760.34789968254,4.276775878324468,-6.102186117021287,2.6443012832446815,-0.1742515884308512,0.0829408410904256,0.0486654408244682,0.1922956077127659,-0.8251896347305382,1.2076513646041251,0.0304125103127078,0.0,0.0,0.0,271.0299003322259,81.61212752777134,51.44289133982078,74.58002481294078,0.7074829931972789,0.4217687074829932,1600.5941566582585,1532.2752828330424,1.0445865534676644
ab60,1616593425249,1616593725134,0.0735775598504608,87.0013468013468,694.65061435248,3.7301588405894153,-0.9963325465505702,7.506065021433355,-0.419883708165998,-0.1239416720214187,0.1606658574297191,0.0988894946452478,-0.4394913058902266,0.9907764404283792,0.4395381579651918,0.0,0.0,0.0,144.88590604026845,67.16535328610557,40.84141336670184,60.581535491790106,0.6709183673469388,0.3673469387755102,2849.4609978330327,552.5293116255597,5.157121871869247
ab60,1616592825111,1616593125002,0.1790107326178255,86.23742454728371,705.9405865789637,1.5218688120401311,-2.979182608026757,8.297121280267554,-0.5636729525083602,0.1114829839464883,-0.0217132294314381,0.0978465056856188,-1.1517926468227415,1.233311049498328,-0.1093779411371236,0.0,0.0,0.0,149.57859531772576,100.51365869890265,68.26850447261832,91.5366446175212,0.7469512195121951,0.3932926829268293,1798.6724784818498,1565.8887713195736,1.1486591585723611
ab60,1616568652218,1616568952060,0.1310375670840787,77.10344827586206,794.3860745041354,1.3610384829202948,0.2485474353650361,8.748117894172807,0.2196587032819826,0.1817339156061624,0.0047964340254521,0.0601548754186202,-1.0194306811788345,1.256061628265236,0.3104755539182866,0.0,0.0,0.0,0.0,87.24884038651236,65.96536119285103,94.94948746046946,0.8025078369905956,0.5015673981191222,2062.680037290419,1939.001268529264,1.063784779705155
ab60,1616568352161,1616568652016,0.2844970504077606,77.42805257696298,810.2624850234862,2.318983047523426,0.1594542610441768,7.9789807583668,0.2661505923694782,0.145740765729585,0.0719250127175368,0.0930595200803214,-0.0612262974254742,1.2482858976964697,0.4344647642276419,0.0,0.0,0.0,187.7037037037037,105.52943667619029,66.74097158161726,101.49403309419922,0.831275720164609,0.551440329218107,2628.3811981469025,2214.613867644858,1.1868349767637223
ab60,1616567751972,1616568051855,0.2449049969571979,79.72506738544475,748.2258154761904,3.542962558606839,-1.8420679423978576,6.6181451359678425,-0.4794201882116558,0.1477427119892831,0.0321624681848626,0.2083319551239112,-0.1134159631614197,1.0707233864701948,0.251024774279973,,,,0.0,111.0180019595864,72.75028430445825,103.38073517026864,0.803088803088803,0.5212355212355212,2804.070903458969,4602.838574110018,0.6092047023398274
ab60,1616567451902,1616567751771,0.2997282877562048,88.53706199460916,729.0018637854486,0.6004911854083003,-3.045616352744315,5.030257732931734,0.0053973848728245,0.4564224009370815,-0.1331395870147257,0.2777217597054891,0.5175970615796524,2.30053549598394,-0.885542176706827,8.0,6.11328125,0.2949217499999577,172.8963210702341,100.84226248526376,70.34377765633747,94.7291807262453,0.7147887323943662,0.4436619718309859,3573.7689937264145,2211.839623761376,1.6157450817564205
ab60,1616567151837,1616567451700,0.0491665506681514,77.19543317662861,781.707256034233,3.594987621567316,-6.860313815807108,6.3804959886135215,-0.5611340160750151,0.4641452397856671,0.1500994346952442,0.2423849444072334,-0.3342464829202944,1.1601808439383754,0.3964166108506368,,,,0.0,71.54922517587603,41.94967006441626,67.0322483979901,0.7486033519553073,0.4385474860335195,1026.840477246241,1505.1637732019658,0.6822117935125575
ab60,1616566851745,1616567151637,0.1616931497704037,78.73012129380054,780.0547550774626,2.1058873219544827,-2.702148602409643,7.700119237617145,-0.3653707068273091,0.0881398366800535,0.096663453815261,0.1555499076305221,-0.0588018922356088,1.3731057576974546,0.5498795254350719,0.0,0.0,0.0,367.9732441471572,94.65383309042151,63.014747722533066,91.3581326568876,0.7806451612903226,0.4903225806451612,2116.797505683372,1564.4651614288891,1.3530486698406343
ab60,1616566551684,1616566851544,0.2014277882287215,77.88901126679185,782.618702501712,2.921285436704628,-4.589390511721359,5.740921602143342,-0.4225762873409248,0.2193130689886135,0.0549828492967178,0.142793411922304,-0.0473306111111108,1.2489498726287231,-0.0158401070460712,0.0,0.0,0.0,0.3378378378378378,98.61981419638576,58.92873766115852,89.59432503338317,0.8404255319148937,0.5319148936170213,1871.9329067595872,1714.6414462864286,1.0917343161241206
ab60,1616566251654,1616566551483,0.1866495141277976,80.16224386966745,763.9135845585384,3.11991214869391,-1.2285693837910254,6.786062602143327,-0.556869544541193,-0.0185570288010717,0.0065973014065639,0.1282478633623576,-0.4029336925653045,1.2013462893502982,0.538198281982585,0.0,0.0,0.0,0.8859060402684564,89.9111737115278,57.26381470937808,83.95463037264749,0.7466666666666667,0.4666666666666667,2677.352643626108,1485.1740562021344,1.8027197771502927
ab60,1616565951623,1616566251453,0.1537859244545912,81.53965053763442,744.599538556514,4.082849841823059,-0.9719254222520112,7.704723679624645,-0.7447555264567967,0.0195780080375082,0.0284556858673811,0.1901244353650369,-0.8263094346952434,1.1375820509042198,0.318446087742799,0.0,0.0,0.0,367.1275167785235,75.07366650133396,54.771739582789344,76.92448485596339,0.739938080495356,0.4396284829721362,1665.0712951862552,1272.5868472285078,1.3084146664037242
ab60,1616565651529,1616565951423,0.2357165965706891,81.64510667118185,756.2475653403865,2.688062604963114,-3.039293960429239,7.465007998658621,-0.5965866534852551,0.363144333780161,0.0146890978552278,0.1702804041554963,0.3104959906166225,1.3416822882037542,-0.0737064209115284,0.0,0.0,0.0,703.7859531772575,96.41361232944884,73.90789340982319,105.14942253845577,0.8014440433212996,0.5306859205776173,2083.3332987190074,3297.408925579731,0.6318092010237183
ab60,1616565051412,1616565351302,0.0432856451423013,77.34806070826306,793.2518625152525,2.6930288384718497,-4.978870496648786,8.057980920241281,-0.2485828431635386,0.6873828706434327,-0.0221543317694369,0.147475478552279,-0.2476742654155493,1.3219772111260035,0.3677345864611252,0.0,0.0,0.0,787.0335570469799,73.37780913553071,52.97919049708651,78.93224182724586,0.771978021978022,0.4835164835164835,924.4685157037394,1214.084073885756,0.7614534574569594
ab60,1616560247701,1616560547561,0.1516489374591096,83.45601617795754,731.6511016841538,2.9709561533824504,-6.479427125920956,4.427178624246487,-0.5750799162759554,-0.2507402136637642,0.2387746336235764,-0.1432421774949765,-0.3170864125920959,1.468874752176823,0.7180977642330842,0.0,0.0,0.0,420.76254180602007,76.3519239871766,50.68005372660333,73.34334628920905,0.764179104477612,0.4029850746268656,1746.338441208046,1269.7302794858383,1.3753617358130612
ab60,1616559047559,1616559347430,0.3315842583249243,93.35507246376812,664.5875033731173,4.3359212841823,-3.6167995180965087,5.619728398123319,-0.312727371313672,-0.3823606896782833,0.116579859919571,0.0702747292225201,-0.1182774986595174,1.512037516085792,0.9438740060321708,0.0,0.0,0.0,286.2876254180602,91.16317897637072,70.00686911274991,90.72293207118771,0.6884057971014492,0.3695652173913043,1212.1109456105894,1664.487990101659,0.7282184989130257
ab60,1616558447396,1616558747294,0.2045524835463652,90.26365475387728,676.783602617373,3.348971780831093,-3.097484830428959,7.560698853887389,-0.243818825067024,0.2795497841823057,0.0051227848525468,0.1162975737265419,-0.4277413136729221,1.1581903518766754,0.2368364624664881,0.0,0.0,0.0,723.9328859060403,79.40183969105925,74.03032832047106,93.10723877397125,0.6766467065868264,0.3473053892215569,1381.2970322134036,1518.2179194342418,0.9098147337953556
ab60,1616558147401,1616558447195,0.2528755575687316,87.53561827956989,694.2431398014379,2.8608622498325484,-3.3272222839919583,7.799609711989278,-0.7040527180174144,0.1307903127930342,0.1273426275954453,0.1342397823174814,-0.0377896851975884,1.9253047695914272,0.2390220843938381,0.0,0.0,0.0,742.38127090301,90.02841576842859,67.84323654386282,93.36535321830377,0.7781456953642384,0.4403973509933774,1811.6802027266856,2116.451623811826,0.8559988720478132
ab60,1616593125213,1616593425047,0.157171942677913,85.66397306397306,707.3416432846991,3.4430636709030127,-2.7145236321070216,6.830919594648824,-0.4632965806020063,-0.2498914073578595,-0.0009315391304347,0.1943453605351172,-0.0907424969899665,0.8005284207357867,0.1846220408026754,0.0,0.0,0.0,189.56521739130437,74.75612582295598,58.0547031877313,79.7825046433259,0.7026239067055393,0.3965014577259475,1754.207684856896,1881.5310014216209,0.9323299395712727
ab60,1616569252300,1616569552128,0.2242592882897006,77.08761329305136,791.0716347767706,2.2906439799196807,-1.1078320287817938,8.020917670682744,-0.7853063929049539,-0.1179379779116466,0.0791509437751003,0.0958474692101741,-0.0435274511378842,0.8056090783132527,0.436492629852743,0.0,0.0,0.0,755.1543624161073,84.4219879947744,61.79632656977433,84.91419726330011,0.7326007326007326,0.4102564102564102,1663.50849078318,1695.0280436049002,0.9814047012728556
ab60,1616592524974,1616592824911,0.2817490720371015,92.4468001570475,767.5230553805969,0.9333064934472916,-1.7649786894586896,9.603986312250722,-0.7723167494515137,0.3118230307152262,0.0170811456779289,0.0215846423870118,-0.3816898404033378,1.062924197844228,0.5397739926981918,0.0,0.0,0.0,182.04597701149424,87.15555980837247,55.43548542203289,77.1812442827944,0.7249190938511327,0.4077669902912621,2358.718393596631,2094.1509377015104,1.1263363834631248
ab60,1616589222693,1616589522591,0.2594177937910137,98.57109634551496,612.1307447701802,3.381243036593476,-4.644116888888889,6.0522142215568815,-0.3679618484042557,0.1760095026595743,0.1440631841755318,0.1868867280585106,-0.0613896103723412,0.9793018510638308,0.554926872340425,0.0,0.0,0.0,133.95348837209303,66.13695235081663,64.60424486984152,76.1878942767658,0.469208211143695,0.2082111436950146,716.2902632825802,843.3169524469128,0.8493725416099365
ab60,1616586993211,1616587293118,0.2845425070972289,94.76453971419076,636.5169807146607,1.3048535738031903,-4.155869940824464,8.720427305851072,-0.712470340425532,0.4019237240691493,0.057448380319149,0.0850823045212765,-0.0131249926861702,1.4899667486702122,0.416695464095743,0.0,0.0,0.0,190.33333333333331,65.8874401803058,71.1081064525294,86.93613691684864,0.5806451612903226,0.267741935483871,522.9825529383003,738.916703643619,0.707769293019712
ab60,1616586089459,1616586389271,0.050253111079817,89.70811170212765,674.6637496871089,2.7475271516966084,-2.4741770073186937,8.343086351962754,-0.7774984783765807,-0.3353265821689967,0.1153370499001998,0.0790694624085163,-0.4404923406520275,1.119254823020622,0.2367797677977379,,,,180.531561461794,49.30111847741027,37.23230745653573,49.64680469702605,0.5526315789473685,0.1889952153110047,607.946675319387,458.9232250602254,1.3247241414718225
ab60,1616585789441,1616586089260,0.1905002186564401,93.88513962765956,652.4565534125358,1.6419377101063837,-3.513191832446815,8.780243099069168,-0.4373481422872334,0.3282548011968085,0.0492113823138297,0.0812849454787235,-0.1671343085106379,1.2866223304521271,0.1726728769946801,0.0,0.0,0.0,177.2093023255814,83.76297676209569,68.05388378074082,83.72797561293102,0.6106442577030813,0.3277310924369748,3975.773637458428,2783.118952248091,1.4285316961558396
ab60,1616582488766,1616582788662,0.039040062946692,86.1638418079096,697.8477941478228,-0.1547173071808513,-4.601722494680857,8.906482030585117,0.7667435791223386,0.6008756030585108,-0.0880373829787233,0.0727240904255319,-0.2878191489361676,1.209966755319155,0.3865824468085131,,,,292.0797342192691,68.84636919946028,44.43740843248023,62.15667565695385,0.6609336609336609,0.339066339066339,1607.5349265138627,1357.3146530392169,1.1843494969382138
ab60,1616582188753,1616582488567,0.0802705732638467,88.06937958639092,686.8365289731107,0.064060135728543,-5.412283001995999,8.466529231536933,-0.1327379314703934,0.6345233779108453,0.0445290326014636,0.1142951310711911,-0.3372854284763785,1.221530272787762,0.3860013306719915,,,,273.10299003322257,69.75351199748869,54.7791245675899,69.9646423319438,0.6354430379746835,0.2936708860759494,1410.8846430939225,1201.0881087915438,1.1746720600818057
ab60,1616574053108,1616574352952,0.0726782387885417,72.46675621222298,834.897076872187,0.1059493161419958,-5.357186892163427,8.509532700602826,-0.6901581567314129,-0.0522207421299396,0.1160508245144005,-0.0073292880107167,-0.333871400535831,1.166229068988613,0.4026054929671826,,,,0.0,88.11634754686531,51.844196886801534,82.82304099207626,0.8117283950617284,0.5277777777777778,2233.477237741791,2448.384710386344,0.9122247938680188
ab60,1616570752567,1616571052440,0.2734163877280199,85.05559299191374,673.8478811872087,-0.962084695040214,-4.429055338471855,7.2027393512064295,0.0406184561285999,0.7281519993302068,-0.00484990087073,0.177080101138647,-1.6593704380442058,0.8548158044206309,1.534186217012727,1.588235294117647,1.228860294117647,0.049402588235299,545.1772575250836,143.3440851744719,98.04542474393575,144.87892796429023,0.8490566037735849,0.6490566037735849,5157.494022413213,5416.775431252365,0.9521336241219795
ab60,1616570452494,1616570752366,0.3398043979318507,80.88511924756466,763.8920990753672,3.379221693904885,-6.04235316677831,3.7566770087072943,-0.3869830509042206,0.260988586738111,0.1022870160750166,0.2727773757535163,-0.2585264675150703,1.3867314192900186,0.3743335619557923,0.0,0.0,0.0,286.48322147651004,88.11062248326743,51.72110215735591,77.1438019032081,0.7782426778242678,0.4644351464435146,2592.1346352716096,1654.2021365760904,1.566999931844409
ab60,1616570152427,1616570452294,0.1829560331376433,78.3311579250444,777.740033148601,0.9696248875502004,-2.7038271258366775,8.697234356760402,-0.0387547275769745,0.4453273761713522,0.0003251974564926,0.0835465829986613,-0.2387203791469197,1.2848815321597824,0.0481990331753552,0.0,0.0,0.0,731.0135135135135,80.66891078727036,53.95285854665076,81.00874585324368,0.7811447811447811,0.4882154882154882,1913.90365754222,1677.93138131354,1.1406328523660798
ab60,1616585489390,1616585789242,0.1294542034243424,96.49119015957449,622.5687874498553,0.9542872834331332,-4.559618238855622,8.75468685761811,-0.5015904484364606,-0.2734997371922827,0.0697315522288757,0.0080989500998004,-0.1798203506320686,1.2273053892215575,0.2117232115768456,,,,157.70666666666668,53.95908334041524,38.73891142685832,45.78753364872368,0.3787128712871287,0.1014851485148514,252.7505402848094,232.67862579923352,1.086264539411948
ab60,1616239733437,1616240033281,0.3056160351352615,129.32326283987916,473.3051332542079,0.922908791834004,-4.619038159973221,8.793450180053556,-0.416837866800535,0.3990464016064266,0.045423921017403,0.0554958012048192,-0.1535876813922355,1.1743507369477904,0.44750334939759,,,,166.40802675585283,66.86427554263919,65.03915911279846,86.18119493052306,0.7128953771289538,0.3795620437956204,441.7225106698223,692.8596544260045,0.6375353332353646
ab60,1616897294592,1616897594457,0.0838381308622626,82.2998670212766,734.3776874257298,6.101890342648047,-1.6673547844311365,6.390804155688618,-0.582604081836328,-0.3293287338656024,0.1364553000665337,0.1639615256154358,0.363226888888888,1.4295741849634052,0.4474783832335333,0.0,0.0,0.0,62.53333333333333,66.7879776364054,45.19812200171187,61.7374187812991,0.6694214876033058,0.2617079889807162,1515.436855814679,732.2414548156223,2.069586262630083
ab60,1617098298325,1617098598212,0.303062066876207,88.67360644728005,680.9798010082599,1.0045274317269073,0.8709506030789809,8.451718637215528,0.2811111419009374,-0.1335286439089691,0.0052874504685408,0.0271217121820616,-0.6149129692101749,1.2532530207496635,0.2993975736278441,0.0,0.0,0.0,551.4362416107383,61.33495508061532,44.98323483054043,60.99507451148465,0.6321428571428571,0.275,697.1125593471887,878.6004392819582,0.7934352501768704
ab60,1617094397902,1617094697743,0.2516337780618359,75.63141993957704,817.3910283330832,4.85848540093708,-2.387453981258368,4.449432862784471,-0.3754455829986609,-0.0580304009370816,0.1162083072289157,0.2259562710843375,-0.5643105187416334,1.3576907831325289,0.0977844705488615,0.0,0.0,0.0,71.20805369127517,100.51320197749544,68.19153395044957,94.21458431040703,0.7946768060836502,0.4866920152091255,1817.697709281491,1713.978120684577,1.0605139513423234
ab60,1617093797759,1617094097653,0.3222274431583893,77.01698670605613,873.2612623565506,6.2393527486187965,-1.2625626091160214,4.199843269337014,-0.4964696214285716,0.1440719085714287,0.1344693821428571,0.3583548992857144,-0.4030898623595504,1.234880619382022,0.1081952282303369,,,,0.0,104.0482166366845,61.83982899048108,88.99654279538514,0.7606837606837606,0.4700854700854701,1575.44490687262,2892.163719804764,0.5447288118872365
ab60,1617093497678,1617093797559,0.2757072024695743,73.72708962739175,816.5004273018902,6.108941808567596,1.080013465194109,4.6421880133868765,-0.4294329497991957,-0.187285789825971,-0.0608803708165997,0.3545487469879513,-0.2841231686746984,1.7863587576974551,0.2699263734939761,0.0,0.0,0.0,0.0,79.14396930875529,56.6707195817912,83.94621504287477,0.7939914163090128,0.5021459227467812,2133.449504969464,2066.456897627432,1.0324190683187962
ab60,1617093197642,1617093497477,0.2608850967705218,78.20164327285177,835.4150571531818,6.156112800535471,-2.929452340026777,3.336442000669347,-0.6195239170013395,-0.0626120394912984,0.2833011111111116,0.168731141900937,0.2222289143239631,1.4136813788487277,0.064658621151271,0.0,0.0,0.0,58.09395973154363,90.8581841553232,46.81158676531855,69.27941225018431,0.7444444444444445,0.4074074074074074,1117.3107698070648,852.3593320992744,1.3108447666728091
ab60,1617092897578,1617093197443,0.2600376369198204,74.59838872104733,811.6646470749791,6.183644640562247,-0.6489930856760369,4.828898641231594,-0.5866691820615796,0.0264995923694778,0.0542704062918339,0.3891231941097721,-0.1554150073627849,1.0933868875502009,0.3554819317269076,0.0,0.0,0.0,368.7919463087249,81.70524494012334,55.42868135301634,80.0882345168316,0.7755102040816326,0.4285714285714285,1199.0014366866117,1369.1484747130437,0.8757278402095194
ab60,1617092297547,1617092597358,0.3287628364430067,76.87297843665768,807.8543567180924,6.195887453145912,-5.473098087014726,3.4843805783132504,-0.6722564143239625,0.3121259062918335,0.3351709337349402,0.3252943279785806,-0.0329852904953149,1.3265796499330649,0.3777844558232927,,,,325.744966442953,77.66214428194073,56.36057083506671,80.08844248090709,0.7532467532467533,0.4329004329004329,2297.6539808661164,1671.274869856772,1.374791198208482
ab60,1617091397315,1617091697188,0.2133980704060374,75.26043068640647,814.0425713438422,4.56212294310575,-0.206338516733602,5.78838689424363,-0.636863382195448,0.0766703165997325,0.0065300890227576,0.294125439759036,-0.2695515488621153,1.637315921686744,-0.0878514029451139,0.0,0.0,0.0,245.6241610738255,108.69305779860932,63.45415821918723,89.60522695712763,0.7712177121771218,0.4649446494464944,1754.808559278839,1965.793444342144,0.8926718950708928
ab60,1617098598412,1617098897915,0.2056677336650636,88.62789915966387,688.723100098159,2.593309698391422,-3.4137656286863156,7.470554237265431,-0.511471356568365,0.3815617158176942,0.0013844450402144,0.1578819973190345,0.0262734691689007,1.4256166199731903,-0.0247721079088477,0.0,0.0,0.0,57.30201342281879,65.17692545478215,44.45011414559414,62.31998778782391,0.7142857142857143,0.331306990881459,1055.389104215736,1019.5584846382618,1.0351432704620047
ab60,1617098899130,1617099198982,0.1834106225517936,91.84542693216336,670.8339784255372,2.203954594377509,0.0685349805890236,8.787772460508702,-0.5027232717536817,-0.033099907630522,-0.0210348708165997,0.0595752208835341,-0.3481726840696117,1.3475702851405602,0.4601071030789816,0.0,0.0,0.0,1.979933110367893,60.70731379987092,52.76510044946493,65.62017307069003,0.6225352112676056,0.2225352112676056,886.988678263643,737.0694465341112,1.203399058846477
ab60,1617099199184,1617099499073,0.248408013429816,87.54750073942621,721.450869186487,5.14625098860589,2.451956799597855,4.922775494638075,-0.4825622306122454,-0.379508870748299,0.0312627904761903,0.2595973272108843,-0.1562115140562242,1.3989223654618466,0.5880187623828634,0.0,0.0,0.0,91.25773195876288,79.1465775121395,45.69367912195123,67.27321763867283,0.7068403908794788,0.4006514657980456,1363.0800515053522,1296.6904888409024,1.0511992362370104
ab60,1617099499285,1617099799143,0.2105272695012703,88.92010741859684,683.4116058121133,3.190861008701478,-1.575218830655958,7.923892992637191,-0.5850986934404291,0.0475955676037481,0.0235436974564926,0.1321199223560911,-0.7100267831325289,1.1353212931726886,0.4273092342704138,0.0,0.0,0.0,27.51839464882943,67.28571522359262,51.585421235565526,68.99255811413218,0.6474164133738601,0.2978723404255319,1082.9890548295873,1669.4456052523517,0.6487117947552918
ab60,1617114964900,1617115264782,0.0656588082265487,64.21637034552164,948.0551876488664,2.046002589966556,5.310896224080261,-1.8992529010033476,-0.2369194775919733,-0.124647202006689,-0.3644864367892984,0.507332432107023,-0.3663411531772573,1.3714849444816064,0.5851438133779255,,,,84.09364548494983,95.12728569094922,42.7216678113963,71.22358633490036,0.7938144329896907,0.4982817869415807,1527.754384065062,1185.185035210659,1.289042924671685
ab60,1617114664879,1617114964699,0.3323925936569438,67.70446159007045,884.7136441909873,1.1354831612040168,5.299465086956524,-5.433528775250824,-0.1916177418060205,-0.1183838461538459,-0.5028592180602017,0.6358495605351174,-0.6100267796383125,1.114936367046211,0.4592431373074347,0.0,0.0,0.0,24.214046822742475,97.2542183934232,63.64629770642427,95.8238787473325,0.798941798941799,0.5714285714285714,1266.802575960323,3222.7503911942663,0.3930811953112135
ab60,1617114053861,1617114244380,0.2041332295903626,67.8505523885686,520.378053146083,4.620178991331269,4.0799285133126935,5.39784188421052,-0.5105313667285099,-0.4751562881880025,-0.079213117501546,0.3364561249226969,-0.1603589139851474,1.0885086670792048,0.3784591516089106,,,,220.12383900928796,128.7889528602554,115.32365598339922,182.60627864799096,0.8962655601659751,0.7095435684647303,1466.2707348079527,3326.3763328679825,0.4408012167233472
ab60,1617113338201,1617113638013,0.1241109827726033,68.27348993288591,886.4884784469168,4.5082011559571615,5.260803116465867,3.3807572744310597,-0.1357384605087014,-0.6888446412315934,-0.0236403152610442,0.4365242483266404,0.0147590187416333,0.988527438420346,0.4888755100401597,0.0,0.0,0.0,121.77926421404682,83.29191467740584,50.78398014138662,74.78992877688616,0.7607142857142857,0.4428571428571428,1365.61222937068,1130.835564406543,1.2076134429742196
ab60,1617113038105,1617113338000,0.2238845442618208,71.1234386480529,933.1596232716586,2.0207050809906284,6.156857570950473,2.996925455823296,-0.4166934474916388,-0.2828735297658863,-0.0490478622073578,0.2412988494983279,-0.8952508521739151,1.12575920334448,0.4465016655518386,0.0,0.0,0.0,119.4113712374582,89.9650589279225,57.85967871965428,83.78032558968292,0.7984189723320159,0.4466403162055335,1509.038592982819,1934.096653552884,0.7802291525662669
ab60,1617112738000,1617113037905,0.0783341040704652,72.91145337674263,637.7023378972904,2.3498689076415524,5.485299257833975,-0.2315920890599225,0.0660832825728422,-0.3584863853765802,-0.0766808136338649,0.4743292215503016,-0.3920230731170977,1.0881748229796622,0.3700109813084093,0.0,0.0,0.0,53.04109589041096,123.0569104339092,114.5200073644919,159.54828234738196,0.8269896193771626,0.6055363321799307,1346.5127167516152,1535.8331600048737,0.8767311136499634
ab60,1617090797283,1617091097113,0.3287847117234368,76.57751677852349,801.6643600566274,4.752369968540827,-1.3173193293172707,5.83768800937082,-0.5938143480589013,-0.4506506244979919,0.1896111539491295,0.1409352429718874,0.0076371867469881,1.037255696117805,0.7113386860776423,0.0,0.0,0.0,0.0,91.26519885024496,53.18428329528789,78.34912727307172,0.7654867256637168,0.4292035398230088,4426.631152565628,2228.9950006346385,1.985931395676204
ab60,1617107421417,1617107721367,0.0332964619965914,72.61791980712961,441.2507105539733,4.0599030940032685,4.899383837925479,2.9929108423246116,-0.4816449718607108,-0.3199886148434747,-0.134255590221597,0.435364929300036,-0.7084746393535581,0.991927986957758,0.3389055738588061,0.0,0.0,0.0,181.43269230769232,142.04027794123098,121.39250079587264,189.01936426400343,0.8566433566433567,0.6643356643356644,1877.6045342960208,5234.880505988004,0.3586718994155247
ab60,1617106378721,1617106645827,0.140805575144149,72.3933933933934,834.2955039717136,5.916184735537186,1.9523616987227617,7.082217461307291,-0.3041089699474082,-0.8244249444027035,0.1955163373403454,0.1572242531930877,-0.1737640939143498,1.261525169797144,0.454710742299022,0.0,0.0,0.0,324.2857142857143,46.73605157667591,28.88473914103938,47.86291901114033,0.6699346405228758,0.2777777777777778,768.5757889189854,886.6603291552054,0.866820995195839
